Word Trial.ID list wordNeighbour N zipf.wordNeighbour len.wordNeighbour bigram.zipf.wordNeighbour old20.wordNeighbour old1.wordNeighbour bigram.zipf.novelWord old20.novelWord old1.novelWord len.novelWord pos_deviation levDistToWordNeigh baseWord Blocco Subject Age Gender Handedness Session List Data OraStart TrialCount Resp Acc rt learning
algebba 11001 A algebra 0 3.120342156 7 6.71 2.45 1 6.51 2.75 1 7 final 1 yes 1 18 23 Female Right Morning A 2018-11-19 10:16:43 2 algebba 1 1.6577 in
algebba 11001 A algebra 0 3.120342156 7 6.71 2.45 1 6.51 2.75 1 7 final 1 yes 1 18 23 Female Right Morning A 2018-11-19 10:16:43 16 algebba 1 1.2574 in
algebba 11001 A algebra 0 3.120342156 7 6.71 2.45 1 6.51 2.75 1 7 final 1 yes 1 6 25 Female Right Morning A 2018-10-08 10:06:46 73 algebba 1 0.8747 in
algebba 11001 A algebra 0 3.120342156 7 6.71 2.45 1 6.51 2.75 1 7 final 1 yes 5 18 23 Female Right Morning A 2018-11-19 10:16:43 28 algebba 1 1.0141 in
algebba 11001 A algebra 0 3.120342156 7 6.71 2.45 1 6.51 2.75 1 7 final 1 yes 1 28 26 Female Right Morning A 2019-01-30 10:01:19 37 algebba 1 0.8827 in
algebba 11001 A algebra 0 3.120342156 7 6.71 2.45 1 6.51 2.75 1 7 final 1 yes 3 10 25 Female Right Morning A 2018-11-02 10:00:35 11 algebba 1 0.996 in
algebba 11001 A algebra 0 3.120342156 7 6.71 2.45 1 6.51 2.75 1 7 final 1 yes 6 28 26 Female Right Morning A 2019-01-30 10:01:19 68 algebba 1 0.6906 in
algebba 11001 A algebra 0 3.120342156 7 6.71 2.45 1 6.51 2.75 1 7 final 1 yes 1 28 26 Female Right Morning A 2019-01-30 10:01:19 27 algebba 1 0.9399 in
algebba 11001 A algebra 0 3.120342156 7 6.71 2.45 1 6.51 2.75 1 7 final 1 yes 4 2 20 Male Right Morning A 2018-09-12 08:46:12 65 algebba 1 0.8164 in
algebba 11001 A algebra 0 3.120342156 7 6.71 2.45 1 6.51 2.75 1 7 final 1 yes 1 12 24 Male Right Morning A 2018-11-05 09:59:30 67 algebba 1 1.2753 in
algebba 11001 A algebra 0 3.120342156 7 6.71 2.45 1 6.51 2.75 1 7 final 1 yes 3 10 25 Female Right Morning A 2018-11-02 10:00:35 3 algebba 1 0.9953 in
algebba 11001 A algebra 0 3.120342156 7 6.71 2.45 1 6.51 2.75 1 7 final 1 yes 3 10 25 Female Right Morning A 2018-11-02 10:00:35 4 algebba 1 0.9677 in
algebba 11001 A algebra 0 3.120342156 7 6.71 2.45 1 6.51 2.75 1 7 final 1 yes 4 12 24 Male Right Morning A 2018-11-05 09:59:30 45 algebba 1 1.1533 in
algebba 11001 A algebra 0 3.120342156 7 6.71 2.45 1 6.51 2.75 1 7 final 1 yes 2 28 26 Female Right Morning A 2019-01-30 10:01:19 39 algebba 1 0.7641 in
algebba 11001 A algebra 0 3.120342156 7 6.71 2.45 1 6.51 2.75 1 7 final 1 yes 2 2 20 Male Right Morning A 2018-09-12 08:46:12 74 algebba 1 0.7222 in
algebba 11001 A algebra 0 3.120342156 7 6.71 2.45 1 6.51 2.75 1 7 final 1 yes 1 10 25 Female Right Morning A 2018-11-02 10:00:35 37 algebba 1 1.345 in
algebba 11001 A algebra 0 3.120342156 7 6.71 2.45 1 6.51 2.75 1 7 final 1 yes 5 10 25 Female Right Morning A 2018-11-02 10:00:35 20 algebba 1 1.1286 in
algebba 11001 A algebra 0 3.120342156 7 6.71 2.45 1 6.51 2.75 1 7 final 1 yes 5 28 26 Female Right Morning A 2019-01-30 10:01:19 17 algebba 1 1.3504 in
algebba 11001 A algebra 0 3.120342156 7 6.71 2.45 1 6.51 2.75 1 7 final 1 yes 3 2 20 Male Right Morning A 2018-09-12 08:46:12 34 algebba 1 0.8067 in
algebba 11001 A algebra 0 3.120342156 7 6.71 2.45 1 6.51 2.75 1 7 final 1 yes 1 12 24 Male Right Morning A 2018-11-05 09:59:30 9 algebba 1 1.0049 in
algebba 11001 A algebra 0 3.120342156 7 6.71 2.45 1 6.51 2.75 1 7 final 1 yes 3 2 20 Male Right Morning A 2018-09-12 08:46:12 71 algebba 1 0.6969 in
algebba 11001 A algebra 0 3.120342156 7 6.71 2.45 1 6.51 2.75 1 7 final 1 yes 5 6 25 Female Right Morning A 2018-10-08 10:06:46 36 algebba 1 0.82 in
algebba 11001 A algebra 0 3.120342156 7 6.71 2.45 1 6.51 2.75 1 7 final 1 yes 5 2 20 Male Right Morning A 2018-09-12 08:46:12 49 algebba 1 0.792 in
algebba 11001 A algebra 0 3.120342156 7 6.71 2.45 1 6.51 2.75 1 7 final 1 yes 1 6 25 Female Right Morning A 2018-10-08 10:06:46 52 algebba 1 0.8988 in
algebba 11001 A algebra 0 3.120342156 7 6.71 2.45 1 6.51 2.75 1 7 final 1 yes 2 28 26 Female Right Morning A 2019-01-30 10:01:19 50 algebba 1 0.8041 in
algebba 11001 A algebra 0 3.120342156 7 6.71 2.45 1 6.51 2.75 1 7 final 1 yes 1 6 25 Female Right Morning A 2018-10-08 10:06:46 15 algebba 1 0.9204 in
algebba 11001 A algebra 0 3.120342156 7 6.71 2.45 1 6.51 2.75 1 7 final 1 yes 4 10 25 Female Right Morning A 2018-11-02 10:00:35 27 algebba 1 0.8561 in
algebba 11001 A algebra 0 3.120342156 7 6.71 2.45 1 6.51 2.75 1 7 final 1 yes 4 12 24 Male Right Morning A 2018-11-05 09:59:30 73 algebba 1 0.9684 in
algebba 11001 A algebra 0 3.120342156 7 6.71 2.45 1 6.51 2.75 1 7 final 1 yes 2 28 26 Female Right Morning A 2019-01-30 10:01:19 12 algebba 1 0.6678 in
algebba 11001 A algebra 0 3.120342156 7 6.71 2.45 1 6.51 2.75 1 7 final 1 yes 2 12 24 Male Right Morning A 2018-11-05 09:59:30 12 algebba 1 0.8526 in
algebba 11001 A algebra 0 3.120342156 7 6.71 2.45 1 6.51 2.75 1 7 final 1 yes 2 6 25 Female Right Morning A 2018-10-08 10:06:46 70 algebba 1 0.954 in
algebba 11001 A algebra 0 3.120342156 7 6.71 2.45 1 6.51 2.75 1 7 final 1 yes 5 6 25 Female Right Morning A 2018-10-08 10:06:46 50 algebba 1 0.8033 in
algebba 11001 A algebra 0 3.120342156 7 6.71 2.45 1 6.51 2.75 1 7 final 1 yes 6 2 20 Male Right Morning A 2018-09-12 08:46:12 48 algebba 1 0.6067 in
algebba 11001 A algebra 0 3.120342156 7 6.71 2.45 1 6.51 2.75 1 7 final 1 yes 1 18 23 Female Right Morning A 2018-11-19 10:16:43 35 algebba 1 0.9978 in
algebba 11001 A algebra 0 3.120342156 7 6.71 2.45 1 6.51 2.75 1 7 final 1 yes 3 12 24 Male Right Morning A 2018-11-05 09:59:30 67 algebba 1 0.833 in
algebba 11001 A algebra 0 3.120342156 7 6.71 2.45 1 6.51 2.75 1 7 final 1 yes 2 2 20 Male Right Morning A 2018-09-12 08:46:12 45 algebba 1 1.1431 in
algebba 11001 A algebra 0 3.120342156 7 6.71 2.45 1 6.51 2.75 1 7 final 1 yes 3 10 25 Female Right Morning A 2018-11-02 10:00:35 29 algebba 1 0.9209 in
algebba 11001 A algebra 0 3.120342156 7 6.71 2.45 1 6.51 2.75 1 7 final 1 yes 2 28 26 Female Right Morning A 2019-01-30 10:01:19 22 algebba 1 0.6875 in
algebba 11001 A algebra 0 3.120342156 7 6.71 2.45 1 6.51 2.75 1 7 final 1 yes 5 6 25 Female Right Morning A 2018-10-08 10:06:46 57 algebba 1 0.8247 in
algebba 11001 A algebra 0 3.120342156 7 6.71 2.45 1 6.51 2.75 1 7 final 1 yes 3 28 26 Female Right Morning A 2019-01-30 10:01:19 42 algebba 1 0.728 in
algebba 11001 A algebra 0 3.120342156 7 6.71 2.45 1 6.51 2.75 1 7 final 1 yes 2 6 25 Female Right Morning A 2018-10-08 10:06:46 49 algebba 1 0.8936 in
algebba 11001 A algebra 0 3.120342156 7 6.71 2.45 1 6.51 2.75 1 7 final 1 yes 6 12 24 Male Right Morning A 2018-11-05 09:59:30 33 algebba 1 0.8129 in
algebba 11001 A algebra 0 3.120342156 7 6.71 2.45 1 6.51 2.75 1 7 final 1 yes 5 10 25 Female Right Morning A 2018-11-02 10:00:35 54 algebba 1 0.8349 in
algebba 11001 A algebra 0 3.120342156 7 6.71 2.45 1 6.51 2.75 1 7 final 1 yes 6 12 24 Male Right Morning A 2018-11-05 09:59:30 21 algebba 1 0.7732 in
algebba 11001 A algebra 0 3.120342156 7 6.71 2.45 1 6.51 2.75 1 7 final 1 yes 3 18 23 Female Right Morning A 2018-11-19 10:16:43 8 algebba 1 1.1477 in
algebba 11001 A algebra 0 3.120342156 7 6.71 2.45 1 6.51 2.75 1 7 final 1 yes 4 18 23 Female Right Morning A 2018-11-19 10:16:43 42 algebba 1 1.0348 in
algebba 11001 A algebra 0 3.120342156 7 6.71 2.45 1 6.51 2.75 1 7 final 1 yes 6 2 20 Male Right Morning A 2018-09-12 08:46:12 65 algebba 1 0.6628 in
algebba 11001 A algebra 0 3.120342156 7 6.71 2.45 1 6.51 2.75 1 7 final 1 yes 3 6 25 Female Right Morning A 2018-10-08 10:06:46 37 algebba 1 0.8729 in
algebba 11001 A algebra 0 3.120342156 7 6.71 2.45 1 6.51 2.75 1 7 final 1 yes 3 12 24 Male Right Morning A 2018-11-05 09:59:30 53 algebba 1 0.9834 in
algebba 11001 A algebra 0 3.120342156 7 6.71 2.45 1 6.51 2.75 1 7 final 1 yes 3 2 20 Male Right Morning A 2018-09-12 08:46:12 36 algebba 1 0.7731 in
algebba 11001 A algebra 0 3.120342156 7 6.71 2.45 1 6.51 2.75 1 7 final 1 yes 2 18 23 Female Right Morning A 2018-11-19 10:16:43 33 algebba 1 0.999 in
algebba 11001 A algebra 0 3.120342156 7 6.71 2.45 1 6.51 2.75 1 7 final 1 yes 6 18 23 Female Right Morning A 2018-11-19 10:16:43 15 algebba 1 1.0397 in
algebba 11001 A algebra 0 3.120342156 7 6.71 2.45 1 6.51 2.75 1 7 final 1 yes 5 18 23 Female Right Morning A 2018-11-19 10:16:43 7 algebba 1 0.9421 in
algebba 11001 A algebra 0 3.120342156 7 6.71 2.45 1 6.51 2.75 1 7 final 1 yes 5 10 25 Female Right Morning A 2018-11-02 10:00:35 38 algebba 1 0.9557 in
amulero 11003 A amuleto 1 3.319645514 7 6.79 2 1 6.91 2.2 1 7 final 1 yes 4 28 26 Female Right Morning A 2019-01-30 10:01:19 41 amulero 1 0.7525 in
amulero 11003 A amuleto 1 3.319645514 7 6.79 2 1 6.91 2.2 1 7 final 1 yes 5 18 23 Female Right Morning A 2018-11-19 10:16:43 73 amulero 1 1.0915 in
amulero 11003 A amuleto 1 3.319645514 7 6.79 2 1 6.91 2.2 1 7 final 1 yes 3 2 20 Male Right Morning A 2018-09-12 08:46:12 42 amulero 1 0.7982 in
amulero 11003 A amuleto 1 3.319645514 7 6.79 2 1 6.91 2.2 1 7 final 1 yes 4 6 25 Female Right Morning A 2018-10-08 10:06:46 27 amulero 1 0.9468 in
amulero 11003 A amuleto 1 3.319645514 7 6.79 2 1 6.91 2.2 1 7 final 1 yes 1 10 25 Female Right Morning A 2018-11-02 10:00:35 11 amulero 1 1.3776 in
amulero 11003 A amuleto 1 3.319645514 7 6.79 2 1 6.91 2.2 1 7 final 1 yes 4 12 24 Male Right Morning A 2018-11-05 09:59:30 24 amulero 1 0.9422 in
amulero 11003 A amuleto 1 3.319645514 7 6.79 2 1 6.91 2.2 1 7 final 1 yes 6 2 20 Male Right Morning A 2018-09-12 08:46:12 72 amulero 1 0.6757 in
amulero 11003 A amuleto 1 3.319645514 7 6.79 2 1 6.91 2.2 1 7 final 1 yes 5 10 25 Female Right Morning A 2018-11-02 10:00:35 18 amulero 1 0.9313 in
amulero 11003 A amuleto 1 3.319645514 7 6.79 2 1 6.91 2.2 1 7 final 1 yes 5 18 23 Female Right Morning A 2018-11-19 10:16:43 4 amulero 1 0.8782 in
amulero 11003 A amuleto 1 3.319645514 7 6.79 2 1 6.91 2.2 1 7 final 1 yes 3 2 20 Male Right Morning A 2018-09-12 08:46:12 28 amulero 1 0.6431 in
amulero 11003 A amuleto 1 3.319645514 7 6.79 2 1 6.91 2.2 1 7 final 1 yes 2 12 24 Male Right Morning A 2018-11-05 09:59:30 35 amulero 1 0.9493 in
amulero 11003 A amuleto 1 3.319645514 7 6.79 2 1 6.91 2.2 1 7 final 1 yes 4 12 24 Male Right Morning A 2018-11-05 09:59:30 1 amulero 1 0.9849 in
amulero 11003 A amuleto 1 3.319645514 7 6.79 2 1 6.91 2.2 1 7 final 1 yes 1 6 25 Female Right Morning A 2018-10-08 10:06:46 18 amulero 1 0.9789 in
amulero 11003 A amuleto 1 3.319645514 7 6.79 2 1 6.91 2.2 1 7 final 1 yes 2 6 25 Female Right Morning A 2018-10-08 10:06:46 65 amulero 1 0.9595 in
amulero 11003 A amuleto 1 3.319645514 7 6.79 2 1 6.91 2.2 1 7 final 1 yes 1 12 24 Male Right Morning A 2018-11-05 09:59:30 62 amulero 1 1.1376 in
amulero 11003 A amuleto 1 3.319645514 7 6.79 2 1 6.91 2.2 1 7 final 1 yes 4 6 25 Female Right Morning A 2018-10-08 10:06:46 65 amulero 1 0.8827 in
amulero 11003 A amuleto 1 3.319645514 7 6.79 2 1 6.91 2.2 1 7 final 1 yes 3 10 25 Female Right Morning A 2018-11-02 10:00:35 39 amulero 1 0.8322 in
amulero 11003 A amuleto 1 3.319645514 7 6.79 2 1 6.91 2.2 1 7 final 1 yes 6 28 26 Female Right Morning A 2019-01-30 10:01:19 20 amulero 1 0.6909 in
amulero 11003 A amuleto 1 3.319645514 7 6.79 2 1 6.91 2.2 1 7 final 1 yes 6 28 26 Female Right Morning A 2019-01-30 10:01:19 5 amulero 1 0.7532 in
amulero 11003 A amuleto 1 3.319645514 7 6.79 2 1 6.91 2.2 1 7 final 1 yes 6 10 25 Female Right Morning A 2018-11-02 10:00:35 75 amulero 1 1.1048 in
amulero 11003 A amuleto 1 3.319645514 7 6.79 2 1 6.91 2.2 1 7 final 1 yes 6 6 25 Female Right Morning A 2018-10-08 10:06:46 74 amulero 1 0.9047 in
amulero 11003 A amuleto 1 3.319645514 7 6.79 2 1 6.91 2.2 1 7 final 1 yes 6 28 26 Female Right Morning A 2019-01-30 10:01:19 32 amulero 1 0.6296 in
amulero 11003 A amuleto 1 3.319645514 7 6.79 2 1 6.91 2.2 1 7 final 1 yes 2 2 20 Male Right Morning A 2018-09-12 08:46:12 40 amulero 1 0.5937 in
amulero 11003 A amuleto 1 3.319645514 7 6.79 2 1 6.91 2.2 1 7 final 1 yes 4 12 24 Male Right Morning A 2018-11-05 09:59:30 37 amulero 1 0.9778 in
amulero 11003 A amuleto 1 3.319645514 7 6.79 2 1 6.91 2.2 1 7 final 1 yes 4 2 20 Male Right Morning A 2018-09-12 08:46:12 10 amulero 1 1.0125 in
amulero 11003 A amuleto 1 3.319645514 7 6.79 2 1 6.91 2.2 1 7 final 1 yes 2 12 24 Male Right Morning A 2018-11-05 09:59:30 5 amulero 1 0.8782 in
amulero 11003 A amuleto 1 3.319645514 7 6.79 2 1 6.91 2.2 1 7 final 1 yes 6 10 25 Female Right Morning A 2018-11-02 10:00:35 13 amulero 1 1.0812 in
amulero 11003 A amuleto 1 3.319645514 7 6.79 2 1 6.91 2.2 1 7 final 1 yes 4 2 20 Male Right Morning A 2018-09-12 08:46:12 40 amulero 1 0.7631 in
amulero 11003 A amuleto 1 3.319645514 7 6.79 2 1 6.91 2.2 1 7 final 1 yes 3 28 26 Female Right Morning A 2019-01-30 10:01:19 15 amulero 1 0.6884 in
amulero 11003 A amuleto 1 3.319645514 7 6.79 2 1 6.91 2.2 1 7 final 1 yes 4 2 20 Male Right Morning A 2018-09-12 08:46:12 4 amulero 1 0.7562 in
amulero 11003 A amuleto 1 3.319645514 7 6.79 2 1 6.91 2.2 1 7 final 1 yes 3 6 25 Female Right Morning A 2018-10-08 10:06:46 69 amulero 1 0.8985 in
amulero 11003 A amuleto 1 3.319645514 7 6.79 2 1 6.91 2.2 1 7 final 1 yes 3 10 25 Female Right Morning A 2018-11-02 10:00:35 34 amulero 1 0.8183 in
amulero 11003 A amuleto 1 3.319645514 7 6.79 2 1 6.91 2.2 1 7 final 1 yes 3 12 24 Male Right Morning A 2018-11-05 09:59:30 24 amulero 1 0.9165 in
amulero 11003 A amuleto 1 3.319645514 7 6.79 2 1 6.91 2.2 1 7 final 1 yes 3 28 26 Female Right Morning A 2019-01-30 10:01:19 45 amulero 1 0.7951 in
amulero 11003 A amuleto 1 3.319645514 7 6.79 2 1 6.91 2.2 1 7 final 1 yes 1 18 23 Female Right Morning A 2018-11-19 10:16:43 13 amulero 1 1.3506 in
amulero 11003 A amuleto 1 3.319645514 7 6.79 2 1 6.91 2.2 1 7 final 1 yes 1 28 26 Female Right Morning A 2019-01-30 10:01:19 17 amulero 1 0.8028 in
amulero 11003 A amuleto 1 3.319645514 7 6.79 2 1 6.91 2.2 1 7 final 1 yes 6 6 25 Female Right Morning A 2018-10-08 10:06:46 8 amulero 1 0.8153 in
amulero 11003 A amuleto 1 3.319645514 7 6.79 2 1 6.91 2.2 1 7 final 1 yes 6 2 20 Male Right Morning A 2018-09-12 08:46:12 25 amulero 1 0.8278 in
amulero 11003 A amuleto 1 3.319645514 7 6.79 2 1 6.91 2.2 1 7 final 1 yes 5 2 20 Male Right Morning A 2018-09-12 08:46:12 10 amulero 1 0.8012 in
amulero 11003 A amuleto 1 3.319645514 7 6.79 2 1 6.91 2.2 1 7 final 1 yes 2 18 23 Female Right Morning A 2018-11-19 10:16:43 72 amulero 1 1.2189 in
amulero 11003 A amuleto 1 3.319645514 7 6.79 2 1 6.91 2.2 1 7 final 1 yes 2 18 23 Female Right Morning A 2018-11-19 10:16:43 43 amulero 1 1.1481 in
amulero 11003 A amuleto 1 3.319645514 7 6.79 2 1 6.91 2.2 1 7 final 1 yes 6 6 25 Female Right Morning A 2018-10-08 10:06:46 21 amulero 1 0.9103 in
amulero 11003 A amuleto 1 3.319645514 7 6.79 2 1 6.91 2.2 1 7 final 1 yes 2 10 25 Female Right Morning A 2018-11-02 10:00:35 59 amulero 1 0.7352 in
amulero 11003 A amuleto 1 3.319645514 7 6.79 2 1 6.91 2.2 1 7 final 1 yes 5 18 23 Female Right Morning A 2018-11-19 10:16:43 52 amulero 1 0.9701 in
amulero 11003 A amuleto 1 3.319645514 7 6.79 2 1 6.91 2.2 1 7 final 1 yes 5 28 26 Female Right Morning A 2019-01-30 10:01:19 57 amulero 1 0.8768 in
amulero 11003 A amuleto 1 3.319645514 7 6.79 2 1 6.91 2.2 1 7 final 1 yes 2 10 25 Female Right Morning A 2018-11-02 10:00:35 65 amulero 1 1.1913 in
amulero 11003 A amuleto 1 3.319645514 7 6.79 2 1 6.91 2.2 1 7 final 1 yes 2 18 23 Female Right Morning A 2018-11-19 10:16:43 62 amulero 1 1.1557 in
amulero 11003 A amuleto 1 3.319645514 7 6.79 2 1 6.91 2.2 1 7 final 1 yes 3 6 25 Female Right Morning A 2018-10-08 10:06:46 70 amulero 1 1.0082 in
amulero 11003 A amuleto 1 3.319645514 7 6.79 2 1 6.91 2.2 1 7 final 1 yes 5 18 23 Female Right Morning A 2018-11-19 10:16:43 37 amulero 1 1.3099 in
amulero 11003 A amuleto 1 3.319645514 7 6.79 2 1 6.91 2.2 1 7 final 1 yes 3 12 24 Male Right Morning A 2018-11-05 09:59:30 21 amulero 1 0.8981 in
amulero 11003 A amuleto 1 3.319645514 7 6.79 2 1 6.91 2.2 1 7 final 1 yes 4 10 25 Female Right Morning A 2018-11-02 10:00:35 20 amulero 1 1.0173 in
amulero 11003 A amuleto 1 3.319645514 7 6.79 2 1 6.91 2.2 1 7 final 1 yes 4 18 23 Female Right Morning A 2018-11-19 10:16:43 53 amulero 1 1.4208 in
amulero 11003 A amuleto 1 3.319645514 7 6.79 2 1 6.91 2.2 1 7 final 1 yes 5 28 26 Female Right Morning A 2019-01-30 10:01:19 38 amulero 1 0.7242 in
amulero 11003 A amuleto 1 3.319645514 7 6.79 2 1 6.91 2.2 1 7 final 1 yes 4 12 24 Male Right Morning A 2018-11-05 09:59:30 18 amulero 1 0.8001 in
anguato 21001 B agguato 1 3.494119287 7 6.76 1.9 1 6.91 1.75 1 7 initial 1 yes 6 9 23 Male Right Morning B 2018-10-30 13:58:50 49 anguato 1 0.7241 in
anguato 21001 B agguato 1 3.494119287 7 6.76 1.9 1 6.91 1.75 1 7 initial 1 yes 5 15 29 Female Right Morning B 2018-11-13 10:09:53 6 anguato 1 1.3367 in
anguato 21001 B agguato 1 3.494119287 7 6.76 1.9 1 6.91 1.75 1 7 initial 1 yes 2 15 29 Female Right Morning B 2018-11-13 10:09:53 70 anguato 1 1.2409 in
anguato 21001 B agguato 1 3.494119287 7 6.76 1.9 1 6.91 1.75 1 7 initial 1 yes 1 15 29 Female Right Morning B 2018-11-13 10:09:53 36 anguato 1 1.3198 in
anguato 21001 B agguato 1 3.494119287 7 6.76 1.9 1 6.91 1.75 1 7 initial 1 yes 1 15 29 Female Right Morning B 2018-11-13 10:09:53 11 anguato 1 1.5278 in
anguato 21001 B agguato 1 3.494119287 7 6.76 1.9 1 6.91 1.75 1 7 initial 1 yes 3 25 25 Female Right Morning B 2019-01-10 13:55:25 25 anguato 1 0.9635 in
anguato 21001 B agguato 1 3.494119287 7 6.76 1.9 1 6.91 1.75 1 7 initial 1 yes 4 13 25 Male Right Morning B 2018-11-07 14:04:14 5 anguato 1 0.924 in
anguato 21001 B agguato 1 3.494119287 7 6.76 1.9 1 6.91 1.75 1 7 initial 1 yes 5 25 25 Female Right Morning B 2019-01-10 13:55:25 41 anguato 1 1.1977 in
anguato 21001 B agguato 1 3.494119287 7 6.76 1.9 1 6.91 1.75 1 7 initial 1 yes 2 5 23 Male Right Morning B 2018-10-03 10:11:59 38 anguato 1 1.8426 in
anguato 21001 B agguato 1 3.494119287 7 6.76 1.9 1 6.91 1.75 1 7 initial 1 yes 5 15 29 Female Right Morning B 2018-11-13 10:09:53 64 anguato 1 1.2797 in
anguato 21001 B agguato 1 3.494119287 7 6.76 1.9 1 6.91 1.75 1 7 initial 1 yes 4 19 28 Female Right Morning B 2018-12-03 10:03:01 7 anguato 1 1.5654 in
anguato 21001 B agguato 1 3.494119287 7 6.76 1.9 1 6.91 1.75 1 7 initial 1 yes 5 13 25 Male Right Morning B 2018-11-07 14:04:14 74 anguato 1 1.014 in
anguato 21001 B agguato 1 3.494119287 7 6.76 1.9 1 6.91 1.75 1 7 initial 1 yes 1 19 28 Female Right Morning B 2018-12-03 10:03:01 10 anguato 1 0.8558 in
anguato 21001 B agguato 1 3.494119287 7 6.76 1.9 1 6.91 1.75 1 7 initial 1 yes 2 24 26 Female Right Morning A 2019-01-10 10:07:25 23 anguato 1 1.505 in
anguato 21001 B agguato 1 3.494119287 7 6.76 1.9 1 6.91 1.75 1 7 initial 1 yes 5 19 28 Female Right Morning B 2018-12-03 10:03:01 54 anguato 1 1.0305 in
anguato 21001 B agguato 1 3.494119287 7 6.76 1.9 1 6.91 1.75 1 7 initial 1 yes 2 21 20 Female Right Morning B 2018-12-06 13:42:59 55 anguato 1 1.1523 in
anguato 21001 B agguato 1 3.494119287 7 6.76 1.9 1 6.91 1.75 1 7 initial 1 yes 4 19 28 Female Right Morning B 2018-12-03 10:03:01 22 anguato 1 1.036 in
anguato 21001 B agguato 1 3.494119287 7 6.76 1.9 1 6.91 1.75 1 7 initial 1 yes 5 21 20 Female Right Morning B 2018-12-06 13:42:59 34 anguato 1 1.0281 in
anguato 21001 B agguato 1 3.494119287 7 6.76 1.9 1 6.91 1.75 1 7 initial 1 yes 4 9 23 Male Right Morning B 2018-10-30 13:58:50 47 anguato 1 0.8486 in
anguato 21001 B agguato 1 3.494119287 7 6.76 1.9 1 6.91 1.75 1 7 initial 1 yes 3 15 29 Female Right Morning B 2018-11-13 10:09:53 21 anguato 1 1.2518 in
anguato 21001 B agguato 1 3.494119287 7 6.76 1.9 1 6.91 1.75 1 7 initial 1 yes 1 9 23 Male Right Morning B 2018-10-30 13:58:50 74 anguato 1 0.7446 in
anguato 21001 B agguato 1 3.494119287 7 6.76 1.9 1 6.91 1.75 1 7 initial 1 yes 5 19 28 Female Right Morning B 2018-12-03 10:03:01 29 anguato 1 0.9322 in
anguato 21001 B agguato 1 3.494119287 7 6.76 1.9 1 6.91 1.75 1 7 initial 1 yes 2 15 29 Female Right Morning B 2018-11-13 10:09:53 44 anguato 1 1.1278 in
anguato 21001 B agguato 1 3.494119287 7 6.76 1.9 1 6.91 1.75 1 7 initial 1 yes 2 13 25 Male Right Morning B 2018-11-07 14:04:14 25 anguato 1 1.7398 in
anguato 21001 B agguato 1 3.494119287 7 6.76 1.9 1 6.91 1.75 1 7 initial 1 yes 6 15 29 Female Right Morning B 2018-11-13 10:09:53 51 anguato 1 1.0695 in
anguato 21001 B agguato 1 3.494119287 7 6.76 1.9 1 6.91 1.75 1 7 initial 1 yes 2 25 25 Female Right Morning B 2019-01-10 13:55:25 54 anguato 1 1.1092 in
anguato 21001 B agguato 1 3.494119287 7 6.76 1.9 1 6.91 1.75 1 7 initial 1 yes 3 21 20 Female Right Morning B 2018-12-06 13:42:59 7 anguato 1 0.8753 in
anguato 21001 B agguato 1 3.494119287 7 6.76 1.9 1 6.91 1.75 1 7 initial 1 yes 6 24 26 Female Right Morning A 2019-01-10 10:07:25 5 anguato 1 1.1358 in
anguato 21001 B agguato 1 3.494119287 7 6.76 1.9 1 6.91 1.75 1 7 initial 1 yes 1 21 20 Female Right Morning B 2018-12-06 13:42:59 37 anguato 1 1.1064 in
anguato 21001 B agguato 1 3.494119287 7 6.76 1.9 1 6.91 1.75 1 7 initial 1 yes 5 13 25 Male Right Morning B 2018-11-07 14:04:14 40 anguato 1 1.0782 in
anguato 21001 B agguato 1 3.494119287 7 6.76 1.9 1 6.91 1.75 1 7 initial 1 yes 3 21 20 Female Right Morning B 2018-12-06 13:42:59 38 anguato 1 1.1464 in
anguato 21001 B agguato 1 3.494119287 7 6.76 1.9 1 6.91 1.75 1 7 initial 1 yes 6 19 28 Female Right Morning B 2018-12-03 10:03:01 71 anguato 1 1.3657 in
anguato 21001 B agguato 1 3.494119287 7 6.76 1.9 1 6.91 1.75 1 7 initial 1 yes 4 21 20 Female Right Morning B 2018-12-06 13:42:59 30 anguato 1 1.1028 in
anguato 21001 B agguato 1 3.494119287 7 6.76 1.9 1 6.91 1.75 1 7 initial 1 yes 5 21 20 Female Right Morning B 2018-12-06 13:42:59 36 anguato 1 0.9207 in
anguato 21001 B agguato 1 3.494119287 7 6.76 1.9 1 6.91 1.75 1 7 initial 1 yes 2 5 23 Male Right Morning B 2018-10-03 10:11:59 24 anguato 1 1.5883 in
anguato 21001 B agguato 1 3.494119287 7 6.76 1.9 1 6.91 1.75 1 7 initial 1 yes 4 25 25 Female Right Morning B 2019-01-10 13:55:25 52 anguato 1 0.92 in
anguato 21001 B agguato 1 3.494119287 7 6.76 1.9 1 6.91 1.75 1 7 initial 1 yes 5 19 28 Female Right Morning B 2018-12-03 10:03:01 72 anguato 1 1.0724 in
anguato 21001 B agguato 1 3.494119287 7 6.76 1.9 1 6.91 1.75 1 7 initial 1 yes 5 24 26 Female Right Morning A 2019-01-10 10:07:25 38 anguato 1 1.1566 in
anguato 21001 B agguato 1 3.494119287 7 6.76 1.9 1 6.91 1.75 1 7 initial 1 yes 4 13 25 Male Right Morning B 2018-11-07 14:04:14 67 anguato 1 1.0679 in
anguato 21001 B agguato 1 3.494119287 7 6.76 1.9 1 6.91 1.75 1 7 initial 1 yes 4 5 23 Male Right Morning B 2018-10-03 10:11:59 26 anguato 1 1.0165 in
anguato 21001 B agguato 1 3.494119287 7 6.76 1.9 1 6.91 1.75 1 7 initial 1 yes 1 15 29 Female Right Morning B 2018-11-13 10:09:53 7 anguato 1 1.755 in
anguato 21001 B agguato 1 3.494119287 7 6.76 1.9 1 6.91 1.75 1 7 initial 1 yes 6 13 25 Male Right Morning B 2018-11-07 14:04:14 67 anguato 1 0.9268 in
anguato 21001 B agguato 1 3.494119287 7 6.76 1.9 1 6.91 1.75 1 7 initial 1 yes 5 25 25 Female Right Morning B 2019-01-10 13:55:25 51 anguato 1 1.0237 in
anguato 21001 B agguato 1 3.494119287 7 6.76 1.9 1 6.91 1.75 1 7 initial 1 yes 3 5 23 Male Right Morning B 2018-10-03 10:11:59 11 anguato 1 1.1584 in
anguato 21001 B agguato 1 3.494119287 7 6.76 1.9 1 6.91 1.75 1 7 initial 1 yes 6 13 25 Male Right Morning B 2018-11-07 14:04:14 45 anguato 1 0.8344 in
anguato 21001 B agguato 1 3.494119287 7 6.76 1.9 1 6.91 1.75 1 7 initial 1 yes 2 9 23 Male Right Morning B 2018-10-30 13:58:50 33 anguato 1 0.967 in
anguato 21001 B agguato 1 3.494119287 7 6.76 1.9 1 6.91 1.75 1 7 initial 1 yes 3 13 25 Male Right Morning B 2018-11-07 14:04:14 56 anguato 1 1.6636 in
anguato 21001 B agguato 1 3.494119287 7 6.76 1.9 1 6.91 1.75 1 7 initial 1 yes 1 25 25 Female Right Morning B 2019-01-10 13:55:25 20 anguato 1 0.9851 in
anguato 21001 B agguato 1 3.494119287 7 6.76 1.9 1 6.91 1.75 1 7 initial 1 yes 1 24 26 Female Right Morning A 2019-01-10 10:07:25 25 anguato 1 1.3359 in
anguato 21001 B agguato 1 3.494119287 7 6.76 1.9 1 6.91 1.75 1 7 initial 1 yes 5 24 26 Female Right Morning A 2019-01-10 10:07:25 12 anguato 1 1.4921 in
anguato 21001 B agguato 1 3.494119287 7 6.76 1.9 1 6.91 1.75 1 7 initial 1 yes 1 21 20 Female Right Morning B 2018-12-06 13:42:59 32 anguato 1 1.316 in
anguato 21001 B agguato 1 3.494119287 7 6.76 1.9 1 6.91 1.75 1 7 initial 1 yes 2 9 23 Male Right Morning B 2018-10-30 13:58:50 42 anguato 1 0.7137 in
anguato 21001 B agguato 1 3.494119287 7 6.76 1.9 1 6.91 1.75 1 7 initial 1 yes 6 9 23 Male Right Morning B 2018-10-30 13:58:50 2 anguato 1 0.6554 in
anguato 21001 B agguato 1 3.494119287 7 6.76 1.9 1 6.91 1.75 1 7 initial 1 yes 4 25 25 Female Right Morning B 2019-01-10 13:55:25 14 anguato 1 0.9341 in
anguato 21001 B agguato 1 3.494119287 7 6.76 1.9 1 6.91 1.75 1 7 initial 1 yes 5 24 26 Female Right Morning A 2019-01-10 10:07:25 36 anguato 1 1.3953 in
anguato 21001 B agguato 1 3.494119287 7 6.76 1.9 1 6.91 1.75 1 7 initial 1 yes 3 21 20 Female Right Morning B 2018-12-06 13:42:59 68 anguato 1 0.9305 in
anguato 21001 B agguato 1 3.494119287 7 6.76 1.9 1 6.91 1.75 1 7 initial 1 yes 6 9 23 Male Right Morning B 2018-10-30 13:58:50 18 anguato 1 0.6821 in
anguato 21001 B agguato 1 3.494119287 7 6.76 1.9 1 6.91 1.75 1 7 initial 1 yes 1 9 23 Male Right Morning B 2018-10-30 13:58:50 68 anguato 1 0.9391 in
anguato 21001 B agguato 1 3.494119287 7 6.76 1.9 1 6.91 1.75 1 7 initial 1 yes 5 5 23 Male Right Morning B 2018-10-03 10:11:59 43 anguato 1 1.312 in
anguato 21001 B agguato 1 3.494119287 7 6.76 1.9 1 6.91 1.75 1 7 initial 1 yes 4 5 23 Male Right Morning B 2018-10-03 10:11:59 19 anguato 1 1.4244 in
anguato 21001 B agguato 1 3.494119287 7 6.76 1.9 1 6.91 1.75 1 7 initial 1 yes 5 19 28 Female Right Morning B 2018-12-03 10:03:01 28 anguato 1 1.2963 in
anguato 21001 B agguato 1 3.494119287 7 6.76 1.9 1 6.91 1.75 1 7 initial 1 yes 6 5 23 Male Right Morning B 2018-10-03 10:11:59 8 anguato 1 0.9974 in
anguato 21001 B agguato 1 3.494119287 7 6.76 1.9 1 6.91 1.75 1 7 initial 1 yes 4 25 25 Female Right Morning B 2019-01-10 13:55:25 39 anguato 1 1.037 in
anguato 21001 B agguato 1 3.494119287 7 6.76 1.9 1 6.91 1.75 1 7 initial 1 yes 3 19 28 Female Right Morning B 2018-12-03 10:03:01 21 anguato 1 1.3305 in
anguato 21001 B agguato 1 3.494119287 7 6.76 1.9 1 6.91 1.75 1 7 initial 1 yes 3 25 25 Female Right Morning B 2019-01-10 13:55:25 21 anguato 1 0.9995 in
anguato 21001 B agguato 1 3.494119287 7 6.76 1.9 1 6.91 1.75 1 7 initial 1 yes 2 24 26 Female Right Morning A 2019-01-10 10:07:25 36 anguato 1 1.4693 in
anguato 21001 B agguato 1 3.494119287 7 6.76 1.9 1 6.91 1.75 1 7 initial 1 yes 3 5 23 Male Right Morning B 2018-10-03 10:11:59 18 anguato 1 1.0735 in
anguato 21001 B agguato 1 3.494119287 7 6.76 1.9 1 6.91 1.75 1 7 initial 1 yes 6 13 25 Male Right Morning B 2018-11-07 14:04:14 37 anguato 1 0.813 in
anguato 21001 B agguato 1 3.494119287 7 6.76 1.9 1 6.91 1.75 1 7 initial 1 yes 6 5 23 Male Right Morning B 2018-10-03 10:11:59 23 anguato 1 0.8851 in
anguato 21001 B agguato 1 3.494119287 7 6.76 1.9 1 6.91 1.75 1 7 initial 1 yes 3 24 26 Female Right Morning A 2019-01-10 10:07:25 35 anguato 1 1.4747 in
anguato 21001 B agguato 1 3.494119287 7 6.76 1.9 1 6.91 1.75 1 7 initial 1 yes 2 9 23 Male Right Morning B 2018-10-30 13:58:50 27 anguato 1 0.9056 in
anguato 21001 B agguato 1 3.494119287 7 6.76 1.9 1 6.91 1.75 1 7 initial 1 yes 1 24 26 Female Right Morning A 2019-01-10 10:07:25 11 anguato 1 1.4407 in
antensa 11007 A antenna 1 3.425187354 7 7.02 1.95 1 7.01 1.9 1 7 final 1 yes 2 6 25 Female Right Morning A 2018-10-08 10:06:46 14 antensa 1 1.4114 in
antensa 11007 A antenna 1 3.425187354 7 7.02 1.95 1 7.01 1.9 1 7 final 1 yes 5 28 26 Female Right Morning A 2019-01-30 10:01:19 61 antensa 1 0.7583 in
antensa 11007 A antenna 1 3.425187354 7 7.02 1.95 1 7.01 1.9 1 7 final 1 yes 5 18 23 Female Right Morning A 2018-11-19 10:16:43 32 antensa 1 0.9943 in
antensa 11007 A antenna 1 3.425187354 7 7.02 1.95 1 7.01 1.9 1 7 final 1 yes 1 2 20 Male Right Morning A 2018-09-12 08:46:12 31 antensa 1 1.7132 in
antensa 11007 A antenna 1 3.425187354 7 7.02 1.95 1 7.01 1.9 1 7 final 1 yes 3 28 26 Female Right Morning A 2019-01-30 10:01:19 50 antensa 1 0.7969 in
antensa 11007 A antenna 1 3.425187354 7 7.02 1.95 1 7.01 1.9 1 7 final 1 yes 6 18 23 Female Right Morning A 2018-11-19 10:16:43 21 antensa 1 0.9843 in
antensa 11007 A antenna 1 3.425187354 7 7.02 1.95 1 7.01 1.9 1 7 final 1 yes 3 6 25 Female Right Morning A 2018-10-08 10:06:46 17 antensa 1 0.8612 in
antensa 11007 A antenna 1 3.425187354 7 7.02 1.95 1 7.01 1.9 1 7 final 1 yes 4 12 24 Male Right Morning A 2018-11-05 09:59:30 14 antensa 1 0.7703 in
antensa 11007 A antenna 1 3.425187354 7 7.02 1.95 1 7.01 1.9 1 7 final 1 yes 3 28 26 Female Right Morning A 2019-01-30 10:01:19 20 antensa 1 0.8129 in
antensa 11007 A antenna 1 3.425187354 7 7.02 1.95 1 7.01 1.9 1 7 final 1 yes 4 6 25 Female Right Morning A 2018-10-08 10:06:46 14 antensa 1 0.885 in
antensa 11007 A antenna 1 3.425187354 7 7.02 1.95 1 7.01 1.9 1 7 final 1 yes 3 18 23 Female Right Morning A 2018-11-19 10:16:43 51 antensa 1 1.3448 in
antensa 11007 A antenna 1 3.425187354 7 7.02 1.95 1 7.01 1.9 1 7 final 1 yes 3 28 26 Female Right Morning A 2019-01-30 10:01:19 10 antensa 1 0.68 in
antensa 11007 A antenna 1 3.425187354 7 7.02 1.95 1 7.01 1.9 1 7 final 1 yes 2 28 26 Female Right Morning A 2019-01-30 10:01:19 59 antensa 1 0.8402 in
antensa 11007 A antenna 1 3.425187354 7 7.02 1.95 1 7.01 1.9 1 7 final 1 yes 6 28 26 Female Right Morning A 2019-01-30 10:01:19 42 antensa 1 1.0701 in
antensa 11007 A antenna 1 3.425187354 7 7.02 1.95 1 7.01 1.9 1 7 final 1 yes 5 10 25 Female Right Morning A 2018-11-02 10:00:35 52 antensa 1 0.6243 in
antensa 11007 A antenna 1 3.425187354 7 7.02 1.95 1 7.01 1.9 1 7 final 1 yes 4 12 24 Male Right Morning A 2018-11-05 09:59:30 26 antensa 1 1.1848 in
antensa 11007 A antenna 1 3.425187354 7 7.02 1.95 1 7.01 1.9 1 7 final 1 yes 4 6 25 Female Right Morning A 2018-10-08 10:06:46 64 antensa 1 0.9444 in
antensa 11007 A antenna 1 3.425187354 7 7.02 1.95 1 7.01 1.9 1 7 final 1 yes 4 12 24 Male Right Morning A 2018-11-05 09:59:30 48 antensa 1 0.901 in
antensa 11007 A antenna 1 3.425187354 7 7.02 1.95 1 7.01 1.9 1 7 final 1 yes 4 10 25 Female Right Morning A 2018-11-02 10:00:35 42 antensa 1 0.8887 in
antensa 11007 A antenna 1 3.425187354 7 7.02 1.95 1 7.01 1.9 1 7 final 1 yes 4 6 25 Female Right Morning A 2018-10-08 10:06:46 32 antensa 1 0.9 in
antensa 11007 A antenna 1 3.425187354 7 7.02 1.95 1 7.01 1.9 1 7 final 1 yes 4 6 25 Female Right Morning A 2018-10-08 10:06:46 35 antensa 1 0.8665 in
antensa 11007 A antenna 1 3.425187354 7 7.02 1.95 1 7.01 1.9 1 7 final 1 yes 3 6 25 Female Right Morning A 2018-10-08 10:06:46 16 antensa 1 0.8921 in
antensa 11007 A antenna 1 3.425187354 7 7.02 1.95 1 7.01 1.9 1 7 final 1 yes 1 12 24 Male Right Morning A 2018-11-05 09:59:30 5 antensa 1 0.8488 in
antensa 11007 A antenna 1 3.425187354 7 7.02 1.95 1 7.01 1.9 1 7 final 1 yes 2 2 20 Male Right Morning A 2018-09-12 08:46:12 46 antensa 1 0.7909 in
antensa 11007 A antenna 1 3.425187354 7 7.02 1.95 1 7.01 1.9 1 7 final 1 yes 2 10 25 Female Right Morning A 2018-11-02 10:00:35 6 antensa 1 0.9804 in
antensa 11007 A antenna 1 3.425187354 7 7.02 1.95 1 7.01 1.9 1 7 final 1 yes 1 18 23 Female Right Morning A 2018-11-19 10:16:43 42 antensa 1 1.5451 in
antensa 11007 A antenna 1 3.425187354 7 7.02 1.95 1 7.01 1.9 1 7 final 1 yes 3 10 25 Female Right Morning A 2018-11-02 10:00:35 75 antensa 1 0.8762 in
antensa 11007 A antenna 1 3.425187354 7 7.02 1.95 1 7.01 1.9 1 7 final 1 yes 3 18 23 Female Right Morning A 2018-11-19 10:16:43 55 antensa 1 1.0163 in
antensa 11007 A antenna 1 3.425187354 7 7.02 1.95 1 7.01 1.9 1 7 final 1 yes 5 2 20 Male Right Morning A 2018-09-12 08:46:12 25 entensa 0 0.6361 in
antensa 11007 A antenna 1 3.425187354 7 7.02 1.95 1 7.01 1.9 1 7 final 1 yes 5 2 20 Male Right Morning A 2018-09-12 08:46:12 63 antensa 1 0.616 in
antensa 11007 A antenna 1 3.425187354 7 7.02 1.95 1 7.01 1.9 1 7 final 1 yes 3 2 20 Male Right Morning A 2018-09-12 08:46:12 3 antensia 0 0.6457 in
antensa 11007 A antenna 1 3.425187354 7 7.02 1.95 1 7.01 1.9 1 7 final 1 yes 2 10 25 Female Right Morning A 2018-11-02 10:00:35 17 antensa 1 0.951 in
antensa 11007 A antenna 1 3.425187354 7 7.02 1.95 1 7.01 1.9 1 7 final 1 yes 2 2 20 Male Right Morning A 2018-09-12 08:46:12 31 antensa 1 0.6992 in
antensa 11007 A antenna 1 3.425187354 7 7.02 1.95 1 7.01 1.9 1 7 final 1 yes 3 12 24 Male Right Morning A 2018-11-05 09:59:30 22 antensa 1 0.8192 in
antensa 11007 A antenna 1 3.425187354 7 7.02 1.95 1 7.01 1.9 1 7 final 1 yes 1 28 26 Female Right Morning A 2019-01-30 10:01:19 10 antensa 1 0.8409 in
antensa 11007 A antenna 1 3.425187354 7 7.02 1.95 1 7.01 1.9 1 7 final 1 yes 2 2 20 Male Right Morning A 2018-09-12 08:46:12 53 antensa 1 0.6387 in
antensa 11007 A antenna 1 3.425187354 7 7.02 1.95 1 7.01 1.9 1 7 final 1 yes 4 2 20 Male Right Morning A 2018-09-12 08:46:12 55 antensa 1 0.7689 in
antensa 11007 A antenna 1 3.425187354 7 7.02 1.95 1 7.01 1.9 1 7 final 1 yes 4 18 23 Female Right Morning A 2018-11-19 10:16:43 73 antensa 1 0.9845 in
antensa 11007 A antenna 1 3.425187354 7 7.02 1.95 1 7.01 1.9 1 7 final 1 yes 6 18 23 Female Right Morning A 2018-11-19 10:16:43 32 antensa 1 1.0032 in
antensa 11007 A antenna 1 3.425187354 7 7.02 1.95 1 7.01 1.9 1 7 final 1 yes 2 6 25 Female Right Morning A 2018-10-08 10:06:46 23 antensa 1 0.997 in
antensa 11007 A antenna 1 3.425187354 7 7.02 1.95 1 7.01 1.9 1 7 final 1 yes 5 10 25 Female Right Morning A 2018-11-02 10:00:35 5 antensa 1 0.7001 in
antensa 11007 A antenna 1 3.425187354 7 7.02 1.95 1 7.01 1.9 1 7 final 1 yes 4 28 26 Female Right Morning A 2019-01-30 10:01:19 47 antensa 1 0.7577 in
antensa 11007 A antenna 1 3.425187354 7 7.02 1.95 1 7.01 1.9 1 7 final 1 yes 6 10 25 Female Right Morning A 2018-11-02 10:00:35 62 antensa 1 0.7771 in
antensa 11007 A antenna 1 3.425187354 7 7.02 1.95 1 7.01 1.9 1 7 final 1 yes 1 10 25 Female Right Morning A 2018-11-02 10:00:35 57 antensa 1 1.0517 in
antensa 11007 A antenna 1 3.425187354 7 7.02 1.95 1 7.01 1.9 1 7 final 1 yes 2 18 23 Female Right Morning A 2018-11-19 10:16:43 47 antensa 1 1.0572 in
antensa 11007 A antenna 1 3.425187354 7 7.02 1.95 1 7.01 1.9 1 7 final 1 yes 6 18 23 Female Right Morning A 2018-11-19 10:16:43 59 antensa 1 0.8179 in
antensa 11007 A antenna 1 3.425187354 7 7.02 1.95 1 7.01 1.9 1 7 final 1 yes 6 2 20 Male Right Morning A 2018-09-12 08:46:12 47 antensa 1 0.6323 in
antensa 11007 A antenna 1 3.425187354 7 7.02 1.95 1 7.01 1.9 1 7 final 1 yes 2 12 24 Male Right Morning A 2018-11-05 09:59:30 60 antensa 1 0.896 in
antensa 11007 A antenna 1 3.425187354 7 7.02 1.95 1 7.01 1.9 1 7 final 1 yes 2 28 26 Female Right Morning A 2019-01-30 10:01:19 47 antensa 1 0.7436 in
antensa 11007 A antenna 1 3.425187354 7 7.02 1.95 1 7.01 1.9 1 7 final 1 yes 1 12 24 Male Right Morning A 2018-11-05 09:59:30 52 antensa 1 0.9717 in
antensa 11007 A antenna 1 3.425187354 7 7.02 1.95 1 7.01 1.9 1 7 final 1 yes 6 12 24 Male Right Morning A 2018-11-05 09:59:30 7 antensa 1 0.7682 in
antensa 11007 A antenna 1 3.425187354 7 7.02 1.95 1 7.01 1.9 1 7 final 1 yes 2 12 24 Male Right Morning A 2018-11-05 09:59:30 7 antensa 1 0.9115 in
antensa 11007 A antenna 1 3.425187354 7 7.02 1.95 1 7.01 1.9 1 7 final 1 yes 2 6 25 Female Right Morning A 2018-10-08 10:06:46 35 antensa 1 0.9029 in
antensa 11007 A antenna 1 3.425187354 7 7.02 1.95 1 7.01 1.9 1 7 final 1 yes 4 10 25 Female Right Morning A 2018-11-02 10:00:35 37 antensa 1 0.8039 in
apostomo 11008 A apostolo 1 2.715968037 8 6.85 2 1 6.84 2.55 1 8 final 1 yes 5 10 25 Female Right Morning A 2018-11-02 10:00:35 48 apostomo 1 0.9773 in
apostomo 11008 A apostolo 1 2.715968037 8 6.85 2 1 6.84 2.55 1 8 final 1 yes 3 28 26 Female Right Morning A 2019-01-30 10:01:19 36 apostomo 1 0.8364 in
apostomo 11008 A apostolo 1 2.715968037 8 6.85 2 1 6.84 2.55 1 8 final 1 yes 6 6 25 Female Right Morning A 2018-10-08 10:06:46 25 apostomo 1 0.9038 in
apostomo 11008 A apostolo 1 2.715968037 8 6.85 2 1 6.84 2.55 1 8 final 1 yes 1 12 24 Male Right Morning A 2018-11-05 09:59:30 25 apostomo 1 0.8993 in
apostomo 11008 A apostolo 1 2.715968037 8 6.85 2 1 6.84 2.55 1 8 final 1 yes 1 28 26 Female Right Morning A 2019-01-30 10:01:19 62 apostomo 1 0.8388 in
apostomo 11008 A apostolo 1 2.715968037 8 6.85 2 1 6.84 2.55 1 8 final 1 yes 2 2 20 Male Right Morning A 2018-09-12 08:46:12 75 apostomo 1 0.9006 in
apostomo 11008 A apostolo 1 2.715968037 8 6.85 2 1 6.84 2.55 1 8 final 1 yes 6 6 25 Female Right Morning A 2018-10-08 10:06:46 36 apostomo 1 0.8974 in
apostomo 11008 A apostolo 1 2.715968037 8 6.85 2 1 6.84 2.55 1 8 final 1 yes 4 10 25 Female Right Morning A 2018-11-02 10:00:35 44 apostomo 1 0.7541 in
apostomo 11008 A apostolo 1 2.715968037 8 6.85 2 1 6.84 2.55 1 8 final 1 yes 3 12 24 Male Right Morning A 2018-11-05 09:59:30 20 apostomo 1 0.923 in
apostomo 11008 A apostolo 1 2.715968037 8 6.85 2 1 6.84 2.55 1 8 final 1 yes 1 18 23 Female Right Morning A 2018-11-19 10:16:43 52 apostomo 1 1.0494 in
apostomo 11008 A apostolo 1 2.715968037 8 6.85 2 1 6.84 2.55 1 8 final 1 yes 5 10 25 Female Right Morning A 2018-11-02 10:00:35 30 apostomo 1 0.8478 in
apostomo 11008 A apostolo 1 2.715968037 8 6.85 2 1 6.84 2.55 1 8 final 1 yes 2 18 23 Female Right Morning A 2018-11-19 10:16:43 42 apostomo 1 1.3952 in
apostomo 11008 A apostolo 1 2.715968037 8 6.85 2 1 6.84 2.55 1 8 final 1 yes 1 12 24 Male Right Morning A 2018-11-05 09:59:30 75 apostomo 1 1.1719 in
apostomo 11008 A apostolo 1 2.715968037 8 6.85 2 1 6.84 2.55 1 8 final 1 yes 1 12 24 Male Right Morning A 2018-11-05 09:59:30 22 apostomo 1 1.0152 in
apostomo 11008 A apostolo 1 2.715968037 8 6.85 2 1 6.84 2.55 1 8 final 1 yes 5 6 25 Female Right Morning A 2018-10-08 10:06:46 54 apostomo 1 0.9428 in
apostomo 11008 A apostolo 1 2.715968037 8 6.85 2 1 6.84 2.55 1 8 final 1 yes 2 2 20 Male Right Morning A 2018-09-12 08:46:12 23 apostomo 1 0.9873 in
apostomo 11008 A apostolo 1 2.715968037 8 6.85 2 1 6.84 2.55 1 8 final 1 yes 2 18 23 Female Right Morning A 2018-11-19 10:16:43 29 apostomo 1 1.4593 in
apostomo 11008 A apostolo 1 2.715968037 8 6.85 2 1 6.84 2.55 1 8 final 1 yes 1 28 26 Female Right Morning A 2019-01-30 10:01:19 73 apostomo 1 0.7724 in
apostomo 11008 A apostolo 1 2.715968037 8 6.85 2 1 6.84 2.55 1 8 final 1 yes 2 10 25 Female Right Morning A 2018-11-02 10:00:35 47 apostomo 1 0.7773 in
apostomo 11008 A apostolo 1 2.715968037 8 6.85 2 1 6.84 2.55 1 8 final 1 yes 6 28 26 Female Right Morning A 2019-01-30 10:01:19 10 apostomo 1 0.8003 in
apostomo 11008 A apostolo 1 2.715968037 8 6.85 2 1 6.84 2.55 1 8 final 1 yes 1 12 24 Male Right Morning A 2018-11-05 09:59:30 44 apostomo 1 0.9676 in
apostomo 11008 A apostolo 1 2.715968037 8 6.85 2 1 6.84 2.55 1 8 final 1 yes 4 2 20 Male Right Morning A 2018-09-12 08:46:12 56 apostomo 1 0.6827 in
apostomo 11008 A apostolo 1 2.715968037 8 6.85 2 1 6.84 2.55 1 8 final 1 yes 4 12 24 Male Right Morning A 2018-11-05 09:59:30 63 apostomo 1 0.8557 in
apostomo 11008 A apostolo 1 2.715968037 8 6.85 2 1 6.84 2.55 1 8 final 1 yes 1 18 23 Female Right Morning A 2018-11-19 10:16:43 56 apostomo 1 1.0272 in
apostomo 11008 A apostolo 1 2.715968037 8 6.85 2 1 6.84 2.55 1 8 final 1 yes 3 10 25 Female Right Morning A 2018-11-02 10:00:35 40 apostomo 1 0.8704 in
apostomo 11008 A apostolo 1 2.715968037 8 6.85 2 1 6.84 2.55 1 8 final 1 yes 3 28 26 Female Right Morning A 2019-01-30 10:01:19 46 apostomo 1 0.8222 in
apostomo 11008 A apostolo 1 2.715968037 8 6.85 2 1 6.84 2.55 1 8 final 1 yes 4 18 23 Female Right Morning A 2018-11-19 10:16:43 35 apostomo 1 1.1958 in
apostomo 11008 A apostolo 1 2.715968037 8 6.85 2 1 6.84 2.55 1 8 final 1 yes 3 28 26 Female Right Morning A 2019-01-30 10:01:19 17 apostomo 1 1.0917 in
apostomo 11008 A apostolo 1 2.715968037 8 6.85 2 1 6.84 2.55 1 8 final 1 yes 3 10 25 Female Right Morning A 2018-11-02 10:00:35 60 apostomo 1 0.94 in
apostomo 11008 A apostolo 1 2.715968037 8 6.85 2 1 6.84 2.55 1 8 final 1 yes 4 28 26 Female Right Morning A 2019-01-30 10:01:19 31 apostomo 1 0.6881 in
apostomo 11008 A apostolo 1 2.715968037 8 6.85 2 1 6.84 2.55 1 8 final 1 yes 6 6 25 Female Right Morning A 2018-10-08 10:06:46 75 apostomo 1 0.9358 in
apostomo 11008 A apostolo 1 2.715968037 8 6.85 2 1 6.84 2.55 1 8 final 1 yes 2 2 20 Male Right Morning A 2018-09-12 08:46:12 28 apostomo 1 1.0785 in
apostomo 11008 A apostolo 1 2.715968037 8 6.85 2 1 6.84 2.55 1 8 final 1 yes 3 2 20 Male Right Morning A 2018-09-12 08:46:12 64 apostomo 1 0.9067 in
apostomo 11008 A apostolo 1 2.715968037 8 6.85 2 1 6.84 2.55 1 8 final 1 yes 6 6 25 Female Right Morning A 2018-10-08 10:06:46 15 apostomo 1 0.8507 in
apostomo 11008 A apostolo 1 2.715968037 8 6.85 2 1 6.84 2.55 1 8 final 1 yes 5 12 24 Male Right Morning A 2018-11-05 09:59:30 32 apostomo 1 0.839 in
apostomo 11008 A apostolo 1 2.715968037 8 6.85 2 1 6.84 2.55 1 8 final 1 yes 2 10 25 Female Right Morning A 2018-11-02 10:00:35 67 apostomo 1 0.7901 in
apostomo 11008 A apostolo 1 2.715968037 8 6.85 2 1 6.84 2.55 1 8 final 1 yes 1 18 23 Female Right Morning A 2018-11-19 10:16:43 40 apostomo 1 1.9098 in
apostomo 11008 A apostolo 1 2.715968037 8 6.85 2 1 6.84 2.55 1 8 final 1 yes 2 28 26 Female Right Morning A 2019-01-30 10:01:19 38 apostomo 1 0.6177 in
apostomo 11008 A apostolo 1 2.715968037 8 6.85 2 1 6.84 2.55 1 8 final 1 yes 4 10 25 Female Right Morning A 2018-11-02 10:00:35 23 apostomo 1 0.7467 in
apostomo 11008 A apostolo 1 2.715968037 8 6.85 2 1 6.84 2.55 1 8 final 1 yes 3 12 24 Male Right Morning A 2018-11-05 09:59:30 35 apostomo 1 0.7334 in
apostomo 11008 A apostolo 1 2.715968037 8 6.85 2 1 6.84 2.55 1 8 final 1 yes 2 6 25 Female Right Morning A 2018-10-08 10:06:46 63 apostomo 1 1.0061 in
apostomo 11008 A apostolo 1 2.715968037 8 6.85 2 1 6.84 2.55 1 8 final 1 yes 1 28 26 Female Right Morning A 2019-01-30 10:01:19 47 apostomo 1 0.6495 in
apostomo 11008 A apostolo 1 2.715968037 8 6.85 2 1 6.84 2.55 1 8 final 1 yes 4 6 25 Female Right Morning A 2018-10-08 10:06:46 48 apostomo 1 0.9602 in
apostomo 11008 A apostolo 1 2.715968037 8 6.85 2 1 6.84 2.55 1 8 final 1 yes 6 6 25 Female Right Morning A 2018-10-08 10:06:46 57 apostomo 1 0.879 in
apostomo 11008 A apostolo 1 2.715968037 8 6.85 2 1 6.84 2.55 1 8 final 1 yes 5 2 20 Male Right Morning A 2018-09-12 08:46:12 20 apostomo 1 0.668 in
apostomo 11008 A apostolo 1 2.715968037 8 6.85 2 1 6.84 2.55 1 8 final 1 yes 6 18 23 Female Right Morning A 2018-11-19 10:16:43 41 apostomo 1 1.0415 in
apostomo 11008 A apostolo 1 2.715968037 8 6.85 2 1 6.84 2.55 1 8 final 1 yes 1 2 20 Male Right Morning A 2018-09-12 08:46:12 39 apostomo 1 1.3506 in
apostomo 11008 A apostolo 1 2.715968037 8 6.85 2 1 6.84 2.55 1 8 final 1 yes 6 18 23 Female Right Morning A 2018-11-19 10:16:43 3 apostomo 1 1.0551 in
apostomo 11008 A apostolo 1 2.715968037 8 6.85 2 1 6.84 2.55 1 8 final 1 yes 1 2 20 Male Right Morning A 2018-09-12 08:46:12 73 apostomo 1 0.7245 in
apostomo 11008 A apostolo 1 2.715968037 8 6.85 2 1 6.84 2.55 1 8 final 1 yes 6 10 25 Female Right Morning A 2018-11-02 10:00:35 20 apostomo 1 0.9271 in
apostomo 11008 A apostolo 1 2.715968037 8 6.85 2 1 6.84 2.55 1 8 final 1 yes 2 6 25 Female Right Morning A 2018-10-08 10:06:46 47 apostomo 1 1.1769 in
apostomo 11008 A apostolo 1 2.715968037 8 6.85 2 1 6.84 2.55 1 8 final 1 yes 6 18 23 Female Right Morning A 2018-11-19 10:16:43 18 apostomo 1 0.9933 in
apostomo 11008 A apostolo 1 2.715968037 8 6.85 2 1 6.84 2.55 1 8 final 1 yes 3 12 24 Male Right Morning A 2018-11-05 09:59:30 63 apostomo 1 0.9075 in
apostomo 11008 A apostolo 1 2.715968037 8 6.85 2 1 6.84 2.55 1 8 final 1 yes 4 2 20 Male Right Morning A 2018-09-12 08:46:12 66 abostomo 0 0.9475 in
aquigone 21003 B aquilone 1 3.201647095 8 6.72 2.55 1 6.64 2.8 1 8 middle 1 yes 1 19 28 Female Right Morning B 2018-12-03 10:03:01 57 aquigone 1 1.3198 in
aquigone 21003 B aquilone 1 3.201647095 8 6.72 2.55 1 6.64 2.8 1 8 middle 1 yes 6 9 23 Male Right Morning B 2018-10-30 13:58:50 23 aquigone 1 1.0446 in
aquigone 21003 B aquilone 1 3.201647095 8 6.72 2.55 1 6.64 2.8 1 8 middle 1 yes 5 9 23 Male Right Morning B 2018-10-30 13:58:50 67 aquigone 1 0.7249 in
aquigone 21003 B aquilone 1 3.201647095 8 6.72 2.55 1 6.64 2.8 1 8 middle 1 yes 1 25 25 Female Right Morning B 2019-01-10 13:55:25 63 aquigone 1 1.8226 in
aquigone 21003 B aquilone 1 3.201647095 8 6.72 2.55 1 6.64 2.8 1 8 middle 1 yes 6 15 29 Female Right Morning B 2018-11-13 10:09:53 60 aquigone 1 1.2975 in
aquigone 21003 B aquilone 1 3.201647095 8 6.72 2.55 1 6.64 2.8 1 8 middle 1 yes 6 15 29 Female Right Morning B 2018-11-13 10:09:53 26 aquigone 1 1.283 in
aquigone 21003 B aquilone 1 3.201647095 8 6.72 2.55 1 6.64 2.8 1 8 middle 1 yes 3 15 29 Female Right Morning B 2018-11-13 10:09:53 74 aquigone 1 1.4261 in
aquigone 21003 B aquilone 1 3.201647095 8 6.72 2.55 1 6.64 2.8 1 8 middle 1 yes 4 24 26 Female Right Morning A 2019-01-10 10:07:25 29 aquigone 1 1.9875 in
aquigone 21003 B aquilone 1 3.201647095 8 6.72 2.55 1 6.64 2.8 1 8 middle 1 yes 1 24 26 Female Right Morning A 2019-01-10 10:07:25 45 aquigone 1 2.4025 in
aquigone 21003 B aquilone 1 3.201647095 8 6.72 2.55 1 6.64 2.8 1 8 middle 1 yes 6 24 26 Female Right Morning A 2019-01-10 10:07:25 37 quigone 0 1.2812 in
aquigone 21003 B aquilone 1 3.201647095 8 6.72 2.55 1 6.64 2.8 1 8 middle 1 yes 5 19 28 Female Right Morning B 2018-12-03 10:03:01 52 aquigone 1 1.0912 in
aquigone 21003 B aquilone 1 3.201647095 8 6.72 2.55 1 6.64 2.8 1 8 middle 1 yes 3 9 23 Male Right Morning B 2018-10-30 13:58:50 40 aquigone 1 1.1685 in
aquigone 21003 B aquilone 1 3.201647095 8 6.72 2.55 1 6.64 2.8 1 8 middle 1 yes 2 25 25 Female Right Morning B 2019-01-10 13:55:25 20 aquigone 1 1.5678 in
aquigone 21003 B aquilone 1 3.201647095 8 6.72 2.55 1 6.64 2.8 1 8 middle 1 yes 6 24 26 Female Right Morning A 2019-01-10 10:07:25 54 aquigone 1 1.6275 in
aquigone 21003 B aquilone 1 3.201647095 8 6.72 2.55 1 6.64 2.8 1 8 middle 1 yes 5 13 25 Male Right Morning B 2018-11-07 14:04:14 56 aquigone 1 0.9801 in
aquigone 21003 B aquilone 1 3.201647095 8 6.72 2.55 1 6.64 2.8 1 8 middle 1 yes 2 21 20 Female Right Morning B 2018-12-06 13:42:59 27 aquigone 1 0.8973 in
aquigone 21003 B aquilone 1 3.201647095 8 6.72 2.55 1 6.64 2.8 1 8 middle 1 yes 2 13 25 Male Right Morning B 2018-11-07 14:04:14 19 aquigone 1 1.6356 in
aquigone 21003 B aquilone 1 3.201647095 8 6.72 2.55 1 6.64 2.8 1 8 middle 1 yes 5 19 28 Female Right Morning B 2018-12-03 10:03:01 44 aquigone 1 1.1898 in
aquigone 21003 B aquilone 1 3.201647095 8 6.72 2.55 1 6.64 2.8 1 8 middle 1 yes 6 21 20 Female Right Morning B 2018-12-06 13:42:59 13 aquigone 1 0.9425 in
aquigone 21003 B aquilone 1 3.201647095 8 6.72 2.55 1 6.64 2.8 1 8 middle 1 yes 6 9 23 Male Right Morning B 2018-10-30 13:58:50 9 aquigone 1 1.2187 in
aquigone 21003 B aquilone 1 3.201647095 8 6.72 2.55 1 6.64 2.8 1 8 middle 1 yes 2 15 29 Female Right Morning B 2018-11-13 10:09:53 14 aquigone 1 1.6834 in
aquigone 21003 B aquilone 1 3.201647095 8 6.72 2.55 1 6.64 2.8 1 8 middle 1 yes 2 19 28 Female Right Morning B 2018-12-03 10:03:01 25 aquigone 1 1.2568 in
aquigone 21003 B aquilone 1 3.201647095 8 6.72 2.55 1 6.64 2.8 1 8 middle 1 yes 5 5 23 Male Right Morning B 2018-10-03 10:11:59 75 aquigone 1 1.4415 in
aquigone 21003 B aquilone 1 3.201647095 8 6.72 2.55 1 6.64 2.8 1 8 middle 1 yes 5 21 20 Female Right Morning B 2018-12-06 13:42:59 50 aquigone 1 0.9427 in
aquigone 21003 B aquilone 1 3.201647095 8 6.72 2.55 1 6.64 2.8 1 8 middle 1 yes 6 21 20 Female Right Morning B 2018-12-06 13:42:59 31 aquigone 1 1.2162 in
aquigone 21003 B aquilone 1 3.201647095 8 6.72 2.55 1 6.64 2.8 1 8 middle 1 yes 2 15 29 Female Right Morning B 2018-11-13 10:09:53 23 aquigone 1 1.3307 in
aquigone 21003 B aquilone 1 3.201647095 8 6.72 2.55 1 6.64 2.8 1 8 middle 1 yes 2 21 20 Female Right Morning B 2018-12-06 13:42:59 63 aquigone 1 1.7736 in
aquigone 21003 B aquilone 1 3.201647095 8 6.72 2.55 1 6.64 2.8 1 8 middle 1 yes 3 19 28 Female Right Morning B 2018-12-03 10:03:01 75 aquigone 1 1.3298 in
aquigone 21003 B aquilone 1 3.201647095 8 6.72 2.55 1 6.64 2.8 1 8 middle 1 yes 2 19 28 Female Right Morning B 2018-12-03 10:03:01 73 aquigone 1 1.1429 in
aquigone 21003 B aquilone 1 3.201647095 8 6.72 2.55 1 6.64 2.8 1 8 middle 1 yes 5 15 29 Female Right Morning B 2018-11-13 10:09:53 55 aquigone 1 1.4464 in
aquigone 21003 B aquilone 1 3.201647095 8 6.72 2.55 1 6.64 2.8 1 8 middle 1 yes 4 13 25 Male Right Morning B 2018-11-07 14:04:14 27 aquigone 1 1.0087 in
aquigone 21003 B aquilone 1 3.201647095 8 6.72 2.55 1 6.64 2.8 1 8 middle 1 yes 6 13 25 Male Right Morning B 2018-11-07 14:04:14 42 aquigone 1 1.2 in
aquigone 21003 B aquilone 1 3.201647095 8 6.72 2.55 1 6.64 2.8 1 8 middle 1 yes 4 13 25 Male Right Morning B 2018-11-07 14:04:14 46 aquigone 1 1.036 in
aquigone 21003 B aquilone 1 3.201647095 8 6.72 2.55 1 6.64 2.8 1 8 middle 1 yes 5 15 29 Female Right Morning B 2018-11-13 10:09:53 30 aquigone 1 1.2866 in
aquigone 21003 B aquilone 1 3.201647095 8 6.72 2.55 1 6.64 2.8 1 8 middle 1 yes 5 15 29 Female Right Morning B 2018-11-13 10:09:53 74 aquigone 1 1.1994 in
aquigone 21003 B aquilone 1 3.201647095 8 6.72 2.55 1 6.64 2.8 1 8 middle 1 yes 2 25 25 Female Right Morning B 2019-01-10 13:55:25 6 aquigone 1 1.0951 in
aquigone 21003 B aquilone 1 3.201647095 8 6.72 2.55 1 6.64 2.8 1 8 middle 1 yes 1 24 26 Female Right Morning A 2019-01-10 10:07:25 50 aquigone 1 1.6128 in
aquigone 21003 B aquilone 1 3.201647095 8 6.72 2.55 1 6.64 2.8 1 8 middle 1 yes 6 21 20 Female Right Morning B 2018-12-06 13:42:59 5 aquigone 1 0.8184 in
aquigone 21003 B aquilone 1 3.201647095 8 6.72 2.55 1 6.64 2.8 1 8 middle 1 yes 1 9 23 Male Right Morning B 2018-10-30 13:58:50 72 aquigone 1 1.2805 in
aquigone 21003 B aquilone 1 3.201647095 8 6.72 2.55 1 6.64 2.8 1 8 middle 1 yes 2 24 26 Female Right Morning A 2019-01-10 10:07:25 47 aquigone 1 1.6075 in
aquigone 21003 B aquilone 1 3.201647095 8 6.72 2.55 1 6.64 2.8 1 8 middle 1 yes 6 5 23 Male Right Morning B 2018-10-03 10:11:59 39 aquigone 1 1.4964 in
aquigone 21003 B aquilone 1 3.201647095 8 6.72 2.55 1 6.64 2.8 1 8 middle 1 yes 6 25 25 Female Right Morning B 2019-01-10 13:55:25 65 aquigone 1 1.0529 in
aquigone 21003 B aquilone 1 3.201647095 8 6.72 2.55 1 6.64 2.8 1 8 middle 1 yes 1 5 23 Male Right Morning B 2018-10-03 10:11:59 75  0 0 in
aquigone 21003 B aquilone 1 3.201647095 8 6.72 2.55 1 6.64 2.8 1 8 middle 1 yes 1 9 23 Male Right Morning B 2018-10-30 13:58:50 11 aquigone 1 1.4066 in
aquigone 21003 B aquilone 1 3.201647095 8 6.72 2.55 1 6.64 2.8 1 8 middle 1 yes 1 13 25 Male Right Morning B 2018-11-07 14:04:14 27  0 0 in
aquigone 21003 B aquilone 1 3.201647095 8 6.72 2.55 1 6.64 2.8 1 8 middle 1 yes 6 13 25 Male Right Morning B 2018-11-07 14:04:14 66 aquigone 1 0.9797 in
aquigone 21003 B aquilone 1 3.201647095 8 6.72 2.55 1 6.64 2.8 1 8 middle 1 yes 6 24 26 Female Right Morning A 2019-01-10 10:07:25 55 aquigone 1 1.2965 in
aquigone 21003 B aquilone 1 3.201647095 8 6.72 2.55 1 6.64 2.8 1 8 middle 1 yes 1 21 20 Female Right Morning B 2018-12-06 13:42:59 74 aquigone 1 1.9794 in
aquigone 21003 B aquilone 1 3.201647095 8 6.72 2.55 1 6.64 2.8 1 8 middle 1 yes 5 25 25 Female Right Morning B 2019-01-10 13:55:25 54 aquigone 1 1.4868 in
aquigone 21003 B aquilone 1 3.201647095 8 6.72 2.55 1 6.64 2.8 1 8 middle 1 yes 4 13 25 Male Right Morning B 2018-11-07 14:04:14 73 aquigone 1 1.0814 in
aquigone 21003 B aquilone 1 3.201647095 8 6.72 2.55 1 6.64 2.8 1 8 middle 1 yes 2 5 23 Male Right Morning B 2018-10-03 10:11:59 26 aquignone 0 1.1309 in
aquigone 21003 B aquilone 1 3.201647095 8 6.72 2.55 1 6.64 2.8 1 8 middle 1 yes 5 5 23 Male Right Morning B 2018-10-03 10:11:59 40 aquigone 1 1.3104 in
aquigone 21003 B aquilone 1 3.201647095 8 6.72 2.55 1 6.64 2.8 1 8 middle 1 yes 6 24 26 Female Right Morning A 2019-01-10 10:07:25 27 aquigone 1 2.274 in
aquigone 21003 B aquilone 1 3.201647095 8 6.72 2.55 1 6.64 2.8 1 8 middle 1 yes 5 15 29 Female Right Morning B 2018-11-13 10:09:53 69 aquigone 1 1.8122 in
aquigone 21003 B aquilone 1 3.201647095 8 6.72 2.55 1 6.64 2.8 1 8 middle 1 yes 5 21 20 Female Right Morning B 2018-12-06 13:42:59 16 aquigone 1 1.5166 in
aquigone 21003 B aquilone 1 3.201647095 8 6.72 2.55 1 6.64 2.8 1 8 middle 1 yes 5 9 23 Male Right Morning B 2018-10-30 13:58:50 46 aquigone 1 1.1055 in
aquigone 21003 B aquilone 1 3.201647095 8 6.72 2.55 1 6.64 2.8 1 8 middle 1 yes 2 21 20 Female Right Morning B 2018-12-06 13:42:59 23 aquigone 1 1.265 in
aquigone 21003 B aquilone 1 3.201647095 8 6.72 2.55 1 6.64 2.8 1 8 middle 1 yes 5 5 23 Male Right Morning B 2018-10-03 10:11:59 57 aquigone 1 1.7911 in
aquigone 21003 B aquilone 1 3.201647095 8 6.72 2.55 1 6.64 2.8 1 8 middle 1 yes 1 5 23 Male Right Morning B 2018-10-03 10:11:59 5 aquignone 0 1.4538 in
aquigone 21003 B aquilone 1 3.201647095 8 6.72 2.55 1 6.64 2.8 1 8 middle 1 yes 2 25 25 Female Right Morning B 2019-01-10 13:55:25 24 aquigone 1 1.0777 in
aquigone 21003 B aquilone 1 3.201647095 8 6.72 2.55 1 6.64 2.8 1 8 middle 1 yes 3 13 25 Male Right Morning B 2018-11-07 14:04:14 57 aquigone 1 1.3609 in
aquigone 21003 B aquilone 1 3.201647095 8 6.72 2.55 1 6.64 2.8 1 8 middle 1 yes 6 19 28 Female Right Morning B 2018-12-03 10:03:01 64 aquigone 1 1.1477 in
aquigone 21003 B aquilone 1 3.201647095 8 6.72 2.55 1 6.64 2.8 1 8 middle 1 yes 2 25 25 Female Right Morning B 2019-01-10 13:55:25 53 aquigone 1 1.0274 in
aquigone 21003 B aquilone 1 3.201647095 8 6.72 2.55 1 6.64 2.8 1 8 middle 1 yes 1 24 26 Female Right Morning A 2019-01-10 10:07:25 38 aquilone 0 2.1305 in
aquigone 21003 B aquilone 1 3.201647095 8 6.72 2.55 1 6.64 2.8 1 8 middle 1 yes 1 25 25 Female Right Morning B 2019-01-10 13:55:25 74 aquigone 1 1.2356 in
aquigone 21003 B aquilone 1 3.201647095 8 6.72 2.55 1 6.64 2.8 1 8 middle 1 yes 3 5 23 Male Right Morning B 2018-10-03 10:11:59 15 aquigone 1 1.9543 in
aquigone 21003 B aquilone 1 3.201647095 8 6.72 2.55 1 6.64 2.8 1 8 middle 1 yes 6 9 23 Male Right Morning B 2018-10-30 13:58:50 62 aquigone 1 0.9176 in
aquigone 21003 B aquilone 1 3.201647095 8 6.72 2.55 1 6.64 2.8 1 8 middle 1 yes 6 5 23 Male Right Morning B 2018-10-03 10:11:59 51 aquigone 1 1.0114 in
aquigone 21003 B aquilone 1 3.201647095 8 6.72 2.55 1 6.64 2.8 1 8 middle 1 yes 5 19 28 Female Right Morning B 2018-12-03 10:03:01 14 aquigone 1 1.1414 in
aquigone 21003 B aquilone 1 3.201647095 8 6.72 2.55 1 6.64 2.8 1 8 middle 1 yes 5 25 25 Female Right Morning B 2019-01-10 13:55:25 46 aquigone 1 1.1314 in
aquigone 21003 B aquilone 1 3.201647095 8 6.72 2.55 1 6.64 2.8 1 8 middle 1 yes 4 9 23 Male Right Morning B 2018-10-30 13:58:50 52 aquigone 1 1.0326 in
aquigone 21003 B aquilone 1 3.201647095 8 6.72 2.55 1 6.64 2.8 1 8 middle 1 yes 3 19 28 Female Right Morning B 2018-12-03 10:03:01 56 aquigone 1 1.6679 in
ascuccio 11009 A astuccio 0 2.653321228 8 6.78 1.95 1 6.73 2.2 1 8 middle 1 yes 6 6 25 Female Right Morning A 2018-10-08 10:06:46 67 ascuccio 1 0.8428 in
ascuccio 11009 A astuccio 0 2.653321228 8 6.78 1.95 1 6.73 2.2 1 8 middle 1 yes 2 18 23 Female Right Morning A 2018-11-19 10:16:43 3 ascuccio 1 2.4629 in
ascuccio 11009 A astuccio 0 2.653321228 8 6.78 1.95 1 6.73 2.2 1 8 middle 1 yes 2 10 25 Female Right Morning A 2018-11-02 10:00:35 38 ascuccio 1 0.8852 in
ascuccio 11009 A astuccio 0 2.653321228 8 6.78 1.95 1 6.73 2.2 1 8 middle 1 yes 4 6 25 Female Right Morning A 2018-10-08 10:06:46 63 ascuccio 1 0.9673 in
ascuccio 11009 A astuccio 0 2.653321228 8 6.78 1.95 1 6.73 2.2 1 8 middle 1 yes 4 18 23 Female Right Morning A 2018-11-19 10:16:43 24 ascuccio 1 1.4908 in
ascuccio 11009 A astuccio 0 2.653321228 8 6.78 1.95 1 6.73 2.2 1 8 middle 1 yes 3 18 23 Female Right Morning A 2018-11-19 10:16:43 18 ascuccio 1 1.5922 in
ascuccio 11009 A astuccio 0 2.653321228 8 6.78 1.95 1 6.73 2.2 1 8 middle 1 yes 4 2 20 Male Right Morning A 2018-09-12 08:46:12 63 ascuccio 1 0.7336 in
ascuccio 11009 A astuccio 0 2.653321228 8 6.78 1.95 1 6.73 2.2 1 8 middle 1 yes 3 10 25 Female Right Morning A 2018-11-02 10:00:35 27 ascuccio 1 0.8442 in
ascuccio 11009 A astuccio 0 2.653321228 8 6.78 1.95 1 6.73 2.2 1 8 middle 1 yes 2 10 25 Female Right Morning A 2018-11-02 10:00:35 42 ascuccio 1 0.8675 in
ascuccio 11009 A astuccio 0 2.653321228 8 6.78 1.95 1 6.73 2.2 1 8 middle 1 yes 4 12 24 Male Right Morning A 2018-11-05 09:59:30 52 ascuccio 1 0.8542 in
ascuccio 11009 A astuccio 0 2.653321228 8 6.78 1.95 1 6.73 2.2 1 8 middle 1 yes 6 12 24 Male Right Morning A 2018-11-05 09:59:30 39 ascuccio 1 0.7411 in
ascuccio 11009 A astuccio 0 2.653321228 8 6.78 1.95 1 6.73 2.2 1 8 middle 1 yes 1 6 25 Female Right Morning A 2018-10-08 10:06:46 8 ascuccio 1 0.9185 in
ascuccio 11009 A astuccio 0 2.653321228 8 6.78 1.95 1 6.73 2.2 1 8 middle 1 yes 4 18 23 Female Right Morning A 2018-11-19 10:16:43 36 ascuccio 1 0.9615 in
ascuccio 11009 A astuccio 0 2.653321228 8 6.78 1.95 1 6.73 2.2 1 8 middle 1 yes 6 28 26 Female Right Morning A 2019-01-30 10:01:19 55 ascuccio 1 1.0493 in
ascuccio 11009 A astuccio 0 2.653321228 8 6.78 1.95 1 6.73 2.2 1 8 middle 1 yes 3 6 25 Female Right Morning A 2018-10-08 10:06:46 15 ascuccio 1 0.8405 in
ascuccio 11009 A astuccio 0 2.653321228 8 6.78 1.95 1 6.73 2.2 1 8 middle 1 yes 4 10 25 Female Right Morning A 2018-11-02 10:00:35 7 ascuccio 1 0.8611 in
ascuccio 11009 A astuccio 0 2.653321228 8 6.78 1.95 1 6.73 2.2 1 8 middle 1 yes 2 12 24 Male Right Morning A 2018-11-05 09:59:30 4 ascuccio 1 0.9291 in
ascuccio 11009 A astuccio 0 2.653321228 8 6.78 1.95 1 6.73 2.2 1 8 middle 1 yes 5 18 23 Female Right Morning A 2018-11-19 10:16:43 58 ascuccio 1 1.0033 in
ascuccio 11009 A astuccio 0 2.653321228 8 6.78 1.95 1 6.73 2.2 1 8 middle 1 yes 2 28 26 Female Right Morning A 2019-01-30 10:01:19 58 ascuccio 1 0.9844 in
ascuccio 11009 A astuccio 0 2.653321228 8 6.78 1.95 1 6.73 2.2 1 8 middle 1 yes 5 10 25 Female Right Morning A 2018-11-02 10:00:35 4 ascuccio 1 0.695 in
ascuccio 11009 A astuccio 0 2.653321228 8 6.78 1.95 1 6.73 2.2 1 8 middle 1 yes 2 10 25 Female Right Morning A 2018-11-02 10:00:35 71 ascuccio 1 0.7043 in
ascuccio 11009 A astuccio 0 2.653321228 8 6.78 1.95 1 6.73 2.2 1 8 middle 1 yes 3 10 25 Female Right Morning A 2018-11-02 10:00:35 15 ascuccio 1 0.6817 in
ascuccio 11009 A astuccio 0 2.653321228 8 6.78 1.95 1 6.73 2.2 1 8 middle 1 yes 5 2 20 Male Right Morning A 2018-09-12 08:46:12 6 ascuccio 1 0.7121 in
ascuccio 11009 A astuccio 0 2.653321228 8 6.78 1.95 1 6.73 2.2 1 8 middle 1 yes 4 18 23 Female Right Morning A 2018-11-19 10:16:43 64 ascuccio 1 1.1553 in
ascuccio 11009 A astuccio 0 2.653321228 8 6.78 1.95 1 6.73 2.2 1 8 middle 1 yes 4 18 23 Female Right Morning A 2018-11-19 10:16:43 40 ascuccio 1 1.1381 in
ascuccio 11009 A astuccio 0 2.653321228 8 6.78 1.95 1 6.73 2.2 1 8 middle 1 yes 1 28 26 Female Right Morning A 2019-01-30 10:01:19 33 ascuccio 1 0.5694 in
ascuccio 11009 A astuccio 0 2.653321228 8 6.78 1.95 1 6.73 2.2 1 8 middle 1 yes 6 2 20 Male Right Morning A 2018-09-12 08:46:12 45 ascuccio 1 0.9448 in
ascuccio 11009 A astuccio 0 2.653321228 8 6.78 1.95 1 6.73 2.2 1 8 middle 1 yes 2 18 23 Female Right Morning A 2018-11-19 10:16:43 19 ascuccio 1 1.3203 in
ascuccio 11009 A astuccio 0 2.653321228 8 6.78 1.95 1 6.73 2.2 1 8 middle 1 yes 4 10 25 Female Right Morning A 2018-11-02 10:00:35 18 ascuccio 1 0.698 in
ascuccio 11009 A astuccio 0 2.653321228 8 6.78 1.95 1 6.73 2.2 1 8 middle 1 yes 4 2 20 Male Right Morning A 2018-09-12 08:46:12 50 ascuccio 1 0.7986 in
ascuccio 11009 A astuccio 0 2.653321228 8 6.78 1.95 1 6.73 2.2 1 8 middle 1 yes 1 28 26 Female Right Morning A 2019-01-30 10:01:19 48 ascuccio 1 0.7011 in
ascuccio 11009 A astuccio 0 2.653321228 8 6.78 1.95 1 6.73 2.2 1 8 middle 1 yes 1 28 26 Female Right Morning A 2019-01-30 10:01:19 22 ascuccio 1 0.7001 in
ascuccio 11009 A astuccio 0 2.653321228 8 6.78 1.95 1 6.73 2.2 1 8 middle 1 yes 4 28 26 Female Right Morning A 2019-01-30 10:01:19 25 ascuccio  0 0.63 in
ascuccio 11009 A astuccio 0 2.653321228 8 6.78 1.95 1 6.73 2.2 1 8 middle 1 yes 1 6 25 Female Right Morning A 2018-10-08 10:06:46 7 ascuccio 1 0.9588 in
ascuccio 11009 A astuccio 0 2.653321228 8 6.78 1.95 1 6.73 2.2 1 8 middle 1 yes 6 6 25 Female Right Morning A 2018-10-08 10:06:46 18 ascuccio 1 0.7971 in
ascuccio 11009 A astuccio 0 2.653321228 8 6.78 1.95 1 6.73 2.2 1 8 middle 1 yes 1 2 20 Male Right Morning A 2018-09-12 08:46:12 28 ascuccio 1 1.1848 in
ascuccio 11009 A astuccio 0 2.653321228 8 6.78 1.95 1 6.73 2.2 1 8 middle 1 yes 5 28 26 Female Right Morning A 2019-01-30 10:01:19 31 ascuccio 1 1.123 in
ascuccio 11009 A astuccio 0 2.653321228 8 6.78 1.95 1 6.73 2.2 1 8 middle 1 yes 2 18 23 Female Right Morning A 2018-11-19 10:16:43 5 ascuccio 1 1.3128 in
ascuccio 11009 A astuccio 0 2.653321228 8 6.78 1.95 1 6.73 2.2 1 8 middle 1 yes 4 12 24 Male Right Morning A 2018-11-05 09:59:30 34 ascuccio 1 0.8675 in
ascuccio 11009 A astuccio 0 2.653321228 8 6.78 1.95 1 6.73 2.2 1 8 middle 1 yes 6 2 20 Male Right Morning A 2018-09-12 08:46:12 16 ascuccio 1 0.7805 in
ascuccio 11009 A astuccio 0 2.653321228 8 6.78 1.95 1 6.73 2.2 1 8 middle 1 yes 4 6 25 Female Right Morning A 2018-10-08 10:06:46 43 ascuccio 1 0.8123 in
ascuccio 11009 A astuccio 0 2.653321228 8 6.78 1.95 1 6.73 2.2 1 8 middle 1 yes 4 12 24 Male Right Morning A 2018-11-05 09:59:30 57 ascuccio 1 0.8209 in
ascuccio 11009 A astuccio 0 2.653321228 8 6.78 1.95 1 6.73 2.2 1 8 middle 1 yes 3 12 24 Male Right Morning A 2018-11-05 09:59:30 30 ascuccio 1 0.8577 in
ascuccio 11009 A astuccio 0 2.653321228 8 6.78 1.95 1 6.73 2.2 1 8 middle 1 yes 2 6 25 Female Right Morning A 2018-10-08 10:06:46 5 ascuccio 1 0.8742 in
ascuccio 11009 A astuccio 0 2.653321228 8 6.78 1.95 1 6.73 2.2 1 8 middle 1 yes 6 2 20 Male Right Morning A 2018-09-12 08:46:12 4 ascuccio 1 0.7166 in
ascuccio 11009 A astuccio 0 2.653321228 8 6.78 1.95 1 6.73 2.2 1 8 middle 1 yes 4 10 25 Female Right Morning A 2018-11-02 10:00:35 39 ascuccio 1 0.8854 in
ascuccio 11009 A astuccio 0 2.653321228 8 6.78 1.95 1 6.73 2.2 1 8 middle 1 yes 6 2 20 Male Right Morning A 2018-09-12 08:46:12 33 ascuccio 1 0.6783 in
ascuccio 11009 A astuccio 0 2.653321228 8 6.78 1.95 1 6.73 2.2 1 8 middle 1 yes 1 6 25 Female Right Morning A 2018-10-08 10:06:46 1 ascuccio 1 0.8751 in
ascuccio 11009 A astuccio 0 2.653321228 8 6.78 1.95 1 6.73 2.2 1 8 middle 1 yes 2 12 24 Male Right Morning A 2018-11-05 09:59:30 20 ascuccio 1 0.7395 in
ascuccio 11009 A astuccio 0 2.653321228 8 6.78 1.95 1 6.73 2.2 1 8 middle 1 yes 2 28 26 Female Right Morning A 2019-01-30 10:01:19 64 ascuccio 1 0.6748 in
ascuccio 11009 A astuccio 0 2.653321228 8 6.78 1.95 1 6.73 2.2 1 8 middle 1 yes 4 12 24 Male Right Morning A 2018-11-05 09:59:30 69 ascuccio 1 0.8583 in
ascuccio 11009 A astuccio 0 2.653321228 8 6.78 1.95 1 6.73 2.2 1 8 middle 1 yes 4 28 26 Female Right Morning A 2019-01-30 10:01:19 21 ascuccio 1 0.851 in
ascuccio 11009 A astuccio 0 2.653321228 8 6.78 1.95 1 6.73 2.2 1 8 middle 1 yes 5 2 20 Male Right Morning A 2018-09-12 08:46:12 34 ascuccio 1 0.6999 in
ascuccio 11009 A astuccio 0 2.653321228 8 6.78 1.95 1 6.73 2.2 1 8 middle 1 yes 6 12 24 Male Right Morning A 2018-11-05 09:59:30 5 ascuccio 1 0.8807 in
aseddoto 11004 A aneddoto 1 3.010467166 8 6.85 2.65 1 6.75 2.8 1 8 initial 1 yes 3 18 23 Female Right Morning A 2018-11-19 10:16:43 22 aseddoto 1 1.2269 in
aseddoto 11004 A aneddoto 1 3.010467166 8 6.85 2.65 1 6.75 2.8 1 8 initial 1 yes 3 12 24 Male Right Morning A 2018-11-05 09:59:30 47 aseddoto 1 0.8421 in
aseddoto 11004 A aneddoto 1 3.010467166 8 6.85 2.65 1 6.75 2.8 1 8 initial 1 yes 3 12 24 Male Right Morning A 2018-11-05 09:59:30 62 aseddoto 1 0.7379 in
aseddoto 11004 A aneddoto 1 3.010467166 8 6.85 2.65 1 6.75 2.8 1 8 initial 1 yes 2 18 23 Female Right Morning A 2018-11-19 10:16:43 57 asedotto 0 1.4802 in
aseddoto 11004 A aneddoto 1 3.010467166 8 6.85 2.65 1 6.75 2.8 1 8 initial 1 yes 3 2 20 Male Right Morning A 2018-09-12 08:46:12 73 aseddoto 1 0.659 in
aseddoto 11004 A aneddoto 1 3.010467166 8 6.85 2.65 1 6.75 2.8 1 8 initial 1 yes 1 2 20 Male Right Morning A 2018-09-12 08:46:12 57 aseddoto 1 0.5925 in
aseddoto 11004 A aneddoto 1 3.010467166 8 6.85 2.65 1 6.75 2.8 1 8 initial 1 yes 5 28 26 Female Right Morning A 2019-01-30 10:01:19 63 aseddoto 1 1.0291 in
aseddoto 11004 A aneddoto 1 3.010467166 8 6.85 2.65 1 6.75 2.8 1 8 initial 1 yes 6 28 26 Female Right Morning A 2019-01-30 10:01:19 14 aseddoto 1 0.7713 in
aseddoto 11004 A aneddoto 1 3.010467166 8 6.85 2.65 1 6.75 2.8 1 8 initial 1 yes 4 12 24 Male Right Morning A 2018-11-05 09:59:30 39 aseddoto 1 1.0864 in
aseddoto 11004 A aneddoto 1 3.010467166 8 6.85 2.65 1 6.75 2.8 1 8 initial 1 yes 2 6 25 Female Right Morning A 2018-10-08 10:06:46 45 aseddoto 1 1.0094 in
aseddoto 11004 A aneddoto 1 3.010467166 8 6.85 2.65 1 6.75 2.8 1 8 initial 1 yes 2 18 23 Female Right Morning A 2018-11-19 10:16:43 63 aseddoto 1 0.9967 in
aseddoto 11004 A aneddoto 1 3.010467166 8 6.85 2.65 1 6.75 2.8 1 8 initial 1 yes 1 28 26 Female Right Morning A 2019-01-30 10:01:19 49 asedotto 0 0.8134 in
aseddoto 11004 A aneddoto 1 3.010467166 8 6.85 2.65 1 6.75 2.8 1 8 initial 1 yes 2 6 25 Female Right Morning A 2018-10-08 10:06:46 55 aseddoto 1 0.8896 in
aseddoto 11004 A aneddoto 1 3.010467166 8 6.85 2.65 1 6.75 2.8 1 8 initial 1 yes 2 2 20 Male Right Morning A 2018-09-12 08:46:12 52 aseddoto 1 0.8484 in
aseddoto 11004 A aneddoto 1 3.010467166 8 6.85 2.65 1 6.75 2.8 1 8 initial 1 yes 4 18 23 Female Right Morning A 2018-11-19 10:16:43 34 aseddoto 1 1.2562 in
aseddoto 11004 A aneddoto 1 3.010467166 8 6.85 2.65 1 6.75 2.8 1 8 initial 1 yes 2 6 25 Female Right Morning A 2018-10-08 10:06:46 67 aseddoto 1 0.9641 in
aseddoto 11004 A aneddoto 1 3.010467166 8 6.85 2.65 1 6.75 2.8 1 8 initial 1 yes 4 10 25 Female Right Morning A 2018-11-02 10:00:35 12 aseddoto 1 0.7402 in
aseddoto 11004 A aneddoto 1 3.010467166 8 6.85 2.65 1 6.75 2.8 1 8 initial 1 yes 5 12 24 Male Right Morning A 2018-11-05 09:59:30 60 aseddoto 1 0.8115 in
aseddoto 11004 A aneddoto 1 3.010467166 8 6.85 2.65 1 6.75 2.8 1 8 initial 1 yes 3 6 25 Female Right Morning A 2018-10-08 10:06:46 62 aseddoto 1 0.9224 in
aseddoto 11004 A aneddoto 1 3.010467166 8 6.85 2.65 1 6.75 2.8 1 8 initial 1 yes 1 10 25 Female Right Morning A 2018-11-02 10:00:35 72 aseddoto 1 1.0826 in
aseddoto 11004 A aneddoto 1 3.010467166 8 6.85 2.65 1 6.75 2.8 1 8 initial 1 yes 2 2 20 Male Right Morning A 2018-09-12 08:46:12 60 aseddoto 1 0.6938 in
aseddoto 11004 A aneddoto 1 3.010467166 8 6.85 2.65 1 6.75 2.8 1 8 initial 1 yes 5 18 23 Female Right Morning A 2018-11-19 10:16:43 16 aseddoto 1 0.9578 in
aseddoto 11004 A aneddoto 1 3.010467166 8 6.85 2.65 1 6.75 2.8 1 8 initial 1 yes 3 28 26 Female Right Morning A 2019-01-30 10:01:19 48 aseddoto 1 1.3262 in
aseddoto 11004 A aneddoto 1 3.010467166 8 6.85 2.65 1 6.75 2.8 1 8 initial 1 yes 3 28 26 Female Right Morning A 2019-01-30 10:01:19 60 aseddoto 1 0.7781 in
aseddoto 11004 A aneddoto 1 3.010467166 8 6.85 2.65 1 6.75 2.8 1 8 initial 1 yes 4 6 25 Female Right Morning A 2018-10-08 10:06:46 68 aseddoto 1 1.0139 in
aseddoto 11004 A aneddoto 1 3.010467166 8 6.85 2.65 1 6.75 2.8 1 8 initial 1 yes 5 10 25 Female Right Morning A 2018-11-02 10:00:35 13 aseddoto 1 0.6041 in
aseddoto 11004 A aneddoto 1 3.010467166 8 6.85 2.65 1 6.75 2.8 1 8 initial 1 yes 2 12 24 Male Right Morning A 2018-11-05 09:59:30 67 aseddoto 1 0.882 in
aseddoto 11004 A aneddoto 1 3.010467166 8 6.85 2.65 1 6.75 2.8 1 8 initial 1 yes 4 10 25 Female Right Morning A 2018-11-02 10:00:35 51 aseddoto 1 0.8649 in
aseddoto 11004 A aneddoto 1 3.010467166 8 6.85 2.65 1 6.75 2.8 1 8 initial 1 yes 5 18 23 Female Right Morning A 2018-11-19 10:16:43 1 aseddoto 1 1.574 in
aseddoto 11004 A aneddoto 1 3.010467166 8 6.85 2.65 1 6.75 2.8 1 8 initial 1 yes 3 2 20 Male Right Morning A 2018-09-12 08:46:12 11 aseddoto 1 0.6591 in
aseddoto 11004 A aneddoto 1 3.010467166 8 6.85 2.65 1 6.75 2.8 1 8 initial 1 yes 1 10 25 Female Right Morning A 2018-11-02 10:00:35 52 aseddoto 1 0.9479 in
aseddoto 11004 A aneddoto 1 3.010467166 8 6.85 2.65 1 6.75 2.8 1 8 initial 1 yes 2 10 25 Female Right Morning A 2018-11-02 10:00:35 29 aseddoto 1 1.0418 in
aseddoto 11004 A aneddoto 1 3.010467166 8 6.85 2.65 1 6.75 2.8 1 8 initial 1 yes 1 28 26 Female Right Morning A 2019-01-30 10:01:19 2 asedotto 0 0.8997 in
aseddoto 11004 A aneddoto 1 3.010467166 8 6.85 2.65 1 6.75 2.8 1 8 initial 1 yes 5 12 24 Male Right Morning A 2018-11-05 09:59:30 65 aseddoto 1 0.7437 in
aseddoto 11004 A aneddoto 1 3.010467166 8 6.85 2.65 1 6.75 2.8 1 8 initial 1 yes 4 28 26 Female Right Morning A 2019-01-30 10:01:19 44 aseddoto 1 0.8505 in
aseddoto 11004 A aneddoto 1 3.010467166 8 6.85 2.65 1 6.75 2.8 1 8 initial 1 yes 6 6 25 Female Right Morning A 2018-10-08 10:06:46 62 aseddoto 1 0.9248 in
aseddoto 11004 A aneddoto 1 3.010467166 8 6.85 2.65 1 6.75 2.8 1 8 initial 1 yes 3 28 26 Female Right Morning A 2019-01-30 10:01:19 47 asedotto 0 0.6786 in
aseddoto 11004 A aneddoto 1 3.010467166 8 6.85 2.65 1 6.75 2.8 1 8 initial 1 yes 6 2 20 Male Right Morning A 2018-09-12 08:46:12 66 aseddoto 1 0.642 in
aseddoto 11004 A aneddoto 1 3.010467166 8 6.85 2.65 1 6.75 2.8 1 8 initial 1 yes 6 10 25 Female Right Morning A 2018-11-02 10:00:35 24 aseddoto 1 0.7641 in
aseddoto 11004 A aneddoto 1 3.010467166 8 6.85 2.65 1 6.75 2.8 1 8 initial 1 yes 1 12 24 Male Right Morning A 2018-11-05 09:59:30 31 aseddoto 1 1.1384 in
aseddoto 11004 A aneddoto 1 3.010467166 8 6.85 2.65 1 6.75 2.8 1 8 initial 1 yes 2 2 20 Male Right Morning A 2018-09-12 08:46:12 58 aseddoto 1 0.7468 in
aseddoto 11004 A aneddoto 1 3.010467166 8 6.85 2.65 1 6.75 2.8 1 8 initial 1 yes 2 28 26 Female Right Morning A 2019-01-30 10:01:19 29 asedotto 0 0.9096 in
aseddoto 11004 A aneddoto 1 3.010467166 8 6.85 2.65 1 6.75 2.8 1 8 initial 1 yes 3 6 25 Female Right Morning A 2018-10-08 10:06:46 1 aseddoto 1 0.7971 in
aseddoto 11004 A aneddoto 1 3.010467166 8 6.85 2.65 1 6.75 2.8 1 8 initial 1 yes 2 10 25 Female Right Morning A 2018-11-02 10:00:35 49 aseddoto 1 0.7882 in
aseddoto 11004 A aneddoto 1 3.010467166 8 6.85 2.65 1 6.75 2.8 1 8 initial 1 yes 1 2 20 Male Right Morning A 2018-09-12 08:46:12 38 aseddoto 1 0.9888 in
aseddoto 11004 A aneddoto 1 3.010467166 8 6.85 2.65 1 6.75 2.8 1 8 initial 1 yes 1 2 20 Male Right Morning A 2018-09-12 08:46:12 25 aseddoto 1 1.5998 in
aseddoto 11004 A aneddoto 1 3.010467166 8 6.85 2.65 1 6.75 2.8 1 8 initial 1 yes 4 18 23 Female Right Morning A 2018-11-19 10:16:43 55 aseddoto 1 0.9936 in
aseddoto 11004 A aneddoto 1 3.010467166 8 6.85 2.65 1 6.75 2.8 1 8 initial 1 yes 3 6 25 Female Right Morning A 2018-10-08 10:06:46 66 aseddoto 1 0.9148 in
aseddoto 11004 A aneddoto 1 3.010467166 8 6.85 2.65 1 6.75 2.8 1 8 initial 1 yes 3 12 24 Male Right Morning A 2018-11-05 09:59:30 64 aseddoto 1 0.7807 in
aseddoto 11004 A aneddoto 1 3.010467166 8 6.85 2.65 1 6.75 2.8 1 8 initial 1 yes 4 18 23 Female Right Morning A 2018-11-19 10:16:43 41 aseddoto 1 1.0598 in
aseddoto 11004 A aneddoto 1 3.010467166 8 6.85 2.65 1 6.75 2.8 1 8 initial 1 yes 1 6 25 Female Right Morning A 2018-10-08 10:06:46 58 aseddoto 1 1.1657 in
aseddoto 11004 A aneddoto 1 3.010467166 8 6.85 2.65 1 6.75 2.8 1 8 initial 1 yes 4 18 23 Female Right Morning A 2018-11-19 10:16:43 75 aseddoto 1 1.0491 in
aseddoto 11004 A aneddoto 1 3.010467166 8 6.85 2.65 1 6.75 2.8 1 8 initial 1 yes 5 12 24 Male Right Morning A 2018-11-05 09:59:30 25 aseddoto 1 0.8625 in
aseddoto 11004 A aneddoto 1 3.010467166 8 6.85 2.65 1 6.75 2.8 1 8 initial 1 yes 6 10 25 Female Right Morning A 2018-11-02 10:00:35 52 aseddoto 1 0.9134 in
augubio 21004 B augurio 1 2.942971678 7 6.68 1.85 1 6.41 2.7 1 7 middle 1 yes 1 13 25 Male Right Morning B 2018-11-07 14:04:14 67 augubio 1 1.4292 in
augubio 21004 B augurio 1 2.942971678 7 6.68 1.85 1 6.41 2.7 1 7 middle 1 yes 3 21 20 Female Right Morning B 2018-12-06 13:42:59 41 augubio 1 1.0261 in
augubio 21004 B augurio 1 2.942971678 7 6.68 1.85 1 6.41 2.7 1 7 middle 1 yes 3 9 23 Male Right Morning B 2018-10-30 13:58:50 53 augubio 1 0.8759 in
augubio 21004 B augurio 1 2.942971678 7 6.68 1.85 1 6.41 2.7 1 7 middle 1 yes 1 19 28 Female Right Morning B 2018-12-03 10:03:01 55 augubio 1 1.9632 in
augubio 21004 B augurio 1 2.942971678 7 6.68 1.85 1 6.41 2.7 1 7 middle 1 yes 1 19 28 Female Right Morning B 2018-12-03 10:03:01 69 augubio 1 1.3491 in
augubio 21004 B augurio 1 2.942971678 7 6.68 1.85 1 6.41 2.7 1 7 middle 1 yes 4 15 29 Female Right Morning B 2018-11-13 10:09:53 55 augubio 1 1.3815 in
augubio 21004 B augurio 1 2.942971678 7 6.68 1.85 1 6.41 2.7 1 7 middle 1 yes 4 25 25 Female Right Morning B 2019-01-10 13:55:25 68 augubio 1 1.1632 in
augubio 21004 B augurio 1 2.942971678 7 6.68 1.85 1 6.41 2.7 1 7 middle 1 yes 6 19 28 Female Right Morning B 2018-12-03 10:03:01 46 augubio 1 1.2408 in
augubio 21004 B augurio 1 2.942971678 7 6.68 1.85 1 6.41 2.7 1 7 middle 1 yes 5 5 23 Male Right Morning B 2018-10-03 10:11:59 73 augubio 1 0.925 in
augubio 21004 B augurio 1 2.942971678 7 6.68 1.85 1 6.41 2.7 1 7 middle 1 yes 1 15 29 Female Right Morning B 2018-11-13 10:09:53 9 augubio 1 1.2166 in
augubio 21004 B augurio 1 2.942971678 7 6.68 1.85 1 6.41 2.7 1 7 middle 1 yes 6 5 23 Male Right Morning B 2018-10-03 10:11:59 73 augubio 1 0.7286 in
augubio 21004 B augurio 1 2.942971678 7 6.68 1.85 1 6.41 2.7 1 7 middle 1 yes 2 21 20 Female Right Morning B 2018-12-06 13:42:59 14 augubio 1 1.2867 in
augubio 21004 B augurio 1 2.942971678 7 6.68 1.85 1 6.41 2.7 1 7 middle 1 yes 2 25 25 Female Right Morning B 2019-01-10 13:55:25 63 augubio 1 1.844 in
augubio 21004 B augurio 1 2.942971678 7 6.68 1.85 1 6.41 2.7 1 7 middle 1 yes 5 13 25 Male Right Morning B 2018-11-07 14:04:14 68 augubio 1 1.0338 in
augubio 21004 B augurio 1 2.942971678 7 6.68 1.85 1 6.41 2.7 1 7 middle 1 yes 4 9 23 Male Right Morning B 2018-10-30 13:58:50 60 augubio 1 0.8647 in
augubio 21004 B augurio 1 2.942971678 7 6.68 1.85 1 6.41 2.7 1 7 middle 1 yes 3 19 28 Female Right Morning B 2018-12-03 10:03:01 71 augubio 1 1.3518 in
augubio 21004 B augurio 1 2.942971678 7 6.68 1.85 1 6.41 2.7 1 7 middle 1 yes 2 5 23 Male Right Morning B 2018-10-03 10:11:59 69 augubio 1 1.4416 in
augubio 21004 B augurio 1 2.942971678 7 6.68 1.85 1 6.41 2.7 1 7 middle 1 yes 6 13 25 Male Right Morning B 2018-11-07 14:04:14 3 augubio 1 1.0098 in
augubio 21004 B augurio 1 2.942971678 7 6.68 1.85 1 6.41 2.7 1 7 middle 1 yes 6 25 25 Female Right Morning B 2019-01-10 13:55:25 12 augubio 1 1.0301 in
augubio 21004 B augurio 1 2.942971678 7 6.68 1.85 1 6.41 2.7 1 7 middle 1 yes 4 9 23 Male Right Morning B 2018-10-30 13:58:50 49 augubio 1 0.8075 in
augubio 21004 B augurio 1 2.942971678 7 6.68 1.85 1 6.41 2.7 1 7 middle 1 yes 3 21 20 Female Right Morning B 2018-12-06 13:42:59 64 augubio 1 0.807 in
augubio 21004 B augurio 1 2.942971678 7 6.68 1.85 1 6.41 2.7 1 7 middle 1 yes 4 13 25 Male Right Morning B 2018-11-07 14:04:14 6 augubio 1 0.9143 in
augubio 21004 B augurio 1 2.942971678 7 6.68 1.85 1 6.41 2.7 1 7 middle 1 yes 5 24 26 Female Right Morning A 2019-01-10 10:07:25 66 augubio 1 1.2836 in
augubio 21004 B augurio 1 2.942971678 7 6.68 1.85 1 6.41 2.7 1 7 middle 1 yes 3 15 29 Female Right Morning B 2018-11-13 10:09:53 42 augubio 1 1.1715 in
augubio 21004 B augurio 1 2.942971678 7 6.68 1.85 1 6.41 2.7 1 7 middle 1 yes 1 15 29 Female Right Morning B 2018-11-13 10:09:53 37 augubio 1 1.3808 in
augubio 21004 B augurio 1 2.942971678 7 6.68 1.85 1 6.41 2.7 1 7 middle 1 yes 6 9 23 Male Right Morning B 2018-10-30 13:58:50 31 augubio 1 0.8662 in
augubio 21004 B augurio 1 2.942971678 7 6.68 1.85 1 6.41 2.7 1 7 middle 1 yes 6 5 23 Male Right Morning B 2018-10-03 10:11:59 52 augubio 1 0.9046 in
augubio 21004 B augurio 1 2.942971678 7 6.68 1.85 1 6.41 2.7 1 7 middle 1 yes 3 5 23 Male Right Morning B 2018-10-03 10:11:59 73 augubio 1 1.3734 in
augubio 21004 B augurio 1 2.942971678 7 6.68 1.85 1 6.41 2.7 1 7 middle 1 yes 6 19 28 Female Right Morning B 2018-12-03 10:03:01 24 augubio 1 1.3241 in
augubio 21004 B augurio 1 2.942971678 7 6.68 1.85 1 6.41 2.7 1 7 middle 1 yes 2 9 23 Male Right Morning B 2018-10-30 13:58:50 35 augubio 1 0.8798 in
augubio 21004 B augurio 1 2.942971678 7 6.68 1.85 1 6.41 2.7 1 7 middle 1 yes 4 13 25 Male Right Morning B 2018-11-07 14:04:14 31 augubio 1 1.0268 in
augubio 21004 B augurio 1 2.942971678 7 6.68 1.85 1 6.41 2.7 1 7 middle 1 yes 1 24 26 Female Right Morning A 2019-01-10 10:07:25 22 augubio 1 2.1489 in
augubio 21004 B augurio 1 2.942971678 7 6.68 1.85 1 6.41 2.7 1 7 middle 1 yes 2 24 26 Female Right Morning A 2019-01-10 10:07:25 6 augubio 1 1.7134 in
augubio 21004 B augurio 1 2.942971678 7 6.68 1.85 1 6.41 2.7 1 7 middle 1 yes 2 24 26 Female Right Morning A 2019-01-10 10:07:25 17 augubio 1 1.5404 in
augubio 21004 B augurio 1 2.942971678 7 6.68 1.85 1 6.41 2.7 1 7 middle 1 yes 5 21 20 Female Right Morning B 2018-12-06 13:42:59 27 augubio 1 1.0389 in
augubio 21004 B augurio 1 2.942971678 7 6.68 1.85 1 6.41 2.7 1 7 middle 1 yes 4 19 28 Female Right Morning B 2018-12-03 10:03:01 66 augubio 1 1.5766 in
augubio 21004 B augurio 1 2.942971678 7 6.68 1.85 1 6.41 2.7 1 7 middle 1 yes 6 25 25 Female Right Morning B 2019-01-10 13:55:25 23 augubio 1 1.0399 in
augubio 21004 B augurio 1 2.942971678 7 6.68 1.85 1 6.41 2.7 1 7 middle 1 yes 1 9 23 Male Right Morning B 2018-10-30 13:58:50 1 augubio 1 0.9225 in
augubio 21004 B augurio 1 2.942971678 7 6.68 1.85 1 6.41 2.7 1 7 middle 1 yes 2 15 29 Female Right Morning B 2018-11-13 10:09:53 36 augubio 1 1.1601 in
augubio 21004 B augurio 1 2.942971678 7 6.68 1.85 1 6.41 2.7 1 7 middle 1 yes 4 21 20 Female Right Morning B 2018-12-06 13:42:59 34 augubio 1 0.9749 in
augubio 21004 B augurio 1 2.942971678 7 6.68 1.85 1 6.41 2.7 1 7 middle 1 yes 6 15 29 Female Right Morning B 2018-11-13 10:09:53 65 augubio 1 1.2595 in
augubio 21004 B augurio 1 2.942971678 7 6.68 1.85 1 6.41 2.7 1 7 middle 1 yes 2 21 20 Female Right Morning B 2018-12-06 13:42:59 25 augubio 1 1.2756 in
augubio 21004 B augurio 1 2.942971678 7 6.68 1.85 1 6.41 2.7 1 7 middle 1 yes 4 24 26 Female Right Morning A 2019-01-10 10:07:25 3 augubio 1 1.3421 in
augubio 21004 B augurio 1 2.942971678 7 6.68 1.85 1 6.41 2.7 1 7 middle 1 yes 4 25 25 Female Right Morning B 2019-01-10 13:55:25 6 augubio 1 1.2142 in
augubio 21004 B augurio 1 2.942971678 7 6.68 1.85 1 6.41 2.7 1 7 middle 1 yes 5 19 28 Female Right Morning B 2018-12-03 10:03:01 24 augubio 1 1.271 in
augubio 21004 B augurio 1 2.942971678 7 6.68 1.85 1 6.41 2.7 1 7 middle 1 yes 6 9 23 Male Right Morning B 2018-10-30 13:58:50 36 augubio 1 1.1954 in
augubio 21004 B augurio 1 2.942971678 7 6.68 1.85 1 6.41 2.7 1 7 middle 1 yes 3 13 25 Male Right Morning B 2018-11-07 14:04:14 30 augubio 1 1.5286 in
augubio 21004 B augurio 1 2.942971678 7 6.68 1.85 1 6.41 2.7 1 7 middle 1 yes 4 25 25 Female Right Morning B 2019-01-10 13:55:25 11 augubio 1 1.0745 in
augubio 21004 B augurio 1 2.942971678 7 6.68 1.85 1 6.41 2.7 1 7 middle 1 yes 3 5 23 Male Right Morning B 2018-10-03 10:11:59 14 augubio 1 1.4802 in
augubio 21004 B augurio 1 2.942971678 7 6.68 1.85 1 6.41 2.7 1 7 middle 1 yes 5 5 23 Male Right Morning B 2018-10-03 10:11:59 14 augubio 1 1.1304 in
augubio 21004 B augurio 1 2.942971678 7 6.68 1.85 1 6.41 2.7 1 7 middle 1 yes 1 13 25 Male Right Morning B 2018-11-07 14:04:14 35 augubio 1 2.121 in
augubio 21004 B augurio 1 2.942971678 7 6.68 1.85 1 6.41 2.7 1 7 middle 1 yes 4 24 26 Female Right Morning A 2019-01-10 10:07:25 50 augubio 1 1.215 in
augubio 21004 B augurio 1 2.942971678 7 6.68 1.85 1 6.41 2.7 1 7 middle 1 yes 1 25 25 Female Right Morning B 2019-01-10 13:55:25 27 augubio 1 1.7139 in
augubio 21004 B augurio 1 2.942971678 7 6.68 1.85 1 6.41 2.7 1 7 middle 1 yes 2 21 20 Female Right Morning B 2018-12-06 13:42:59 3 augubio 1 1.1413 in
augubio 21004 B augurio 1 2.942971678 7 6.68 1.85 1 6.41 2.7 1 7 middle 1 yes 2 9 23 Male Right Morning B 2018-10-30 13:58:50 22 augubio 1 1.3138 in
augubio 21004 B augurio 1 2.942971678 7 6.68 1.85 1 6.41 2.7 1 7 middle 1 yes 3 24 26 Female Right Morning A 2019-01-10 10:07:25 47 augubio 1 1.6006 in
augubio 21004 B augurio 1 2.942971678 7 6.68 1.85 1 6.41 2.7 1 7 middle 1 yes 6 9 23 Male Right Morning B 2018-10-30 13:58:50 51 augubio 1 0.7422 in
augubio 21004 B augurio 1 2.942971678 7 6.68 1.85 1 6.41 2.7 1 7 middle 1 yes 4 21 20 Female Right Morning B 2018-12-06 13:42:59 3 augubio 1 1.183 in
augubio 21004 B augurio 1 2.942971678 7 6.68 1.85 1 6.41 2.7 1 7 middle 1 yes 2 21 20 Female Right Morning B 2018-12-06 13:42:59 48 augubio 1 0.9899 in
augubio 21004 B augurio 1 2.942971678 7 6.68 1.85 1 6.41 2.7 1 7 middle 1 yes 4 13 25 Male Right Morning B 2018-11-07 14:04:14 14 augubio 1 0.9319 in
augubio 21004 B augurio 1 2.942971678 7 6.68 1.85 1 6.41 2.7 1 7 middle 1 yes 3 15 29 Female Right Morning B 2018-11-13 10:09:53 43 augubio 1 0.8852 in
augubio 21004 B augurio 1 2.942971678 7 6.68 1.85 1 6.41 2.7 1 7 middle 1 yes 3 15 29 Female Right Morning B 2018-11-13 10:09:53 26 augubio 1 1.4102 in
augubio 21004 B augurio 1 2.942971678 7 6.68 1.85 1 6.41 2.7 1 7 middle 1 yes 2 25 25 Female Right Morning B 2019-01-10 13:55:25 67 augubio 1 1.3087 in
augubio 21004 B augurio 1 2.942971678 7 6.68 1.85 1 6.41 2.7 1 7 middle 1 yes 1 5 23 Male Right Morning B 2018-10-03 10:11:59 34 augubio 1 1.9147 in
augubio 21004 B augurio 1 2.942971678 7 6.68 1.85 1 6.41 2.7 1 7 middle 1 yes 6 25 25 Female Right Morning B 2019-01-10 13:55:25 49 augubio 1 1.042 in
augubio 21004 B augurio 1 2.942971678 7 6.68 1.85 1 6.41 2.7 1 7 middle 1 yes 4 5 23 Male Right Morning B 2018-10-03 10:11:59 11 augubio 1 1.3458 in
augubio 21004 B augurio 1 2.942971678 7 6.68 1.85 1 6.41 2.7 1 7 middle 1 yes 4 24 26 Female Right Morning A 2019-01-10 10:07:25 9 augubio 1 1.1907 in
augubio 21004 B augurio 1 2.942971678 7 6.68 1.85 1 6.41 2.7 1 7 middle 1 yes 4 24 26 Female Right Morning A 2019-01-10 10:07:25 11 augubio 1 1.1134 in
augubio 21004 B augurio 1 2.942971678 7 6.68 1.85 1 6.41 2.7 1 7 middle 1 yes 1 15 29 Female Right Morning B 2018-11-13 10:09:53 2 augubio 1 1.4633 in
augubio 21004 B augurio 1 2.942971678 7 6.68 1.85 1 6.41 2.7 1 7 middle 1 yes 4 19 28 Female Right Morning B 2018-12-03 10:03:01 53 augubio 1 1.1635 in
augubio 21004 B augurio 1 2.942971678 7 6.68 1.85 1 6.41 2.7 1 7 middle 1 yes 2 19 28 Female Right Morning B 2018-12-03 10:03:01 11 augubio 1 1.504 in
augubio 21004 B augurio 1 2.942971678 7 6.68 1.85 1 6.41 2.7 1 7 middle 1 yes 3 13 25 Male Right Morning B 2018-11-07 14:04:14 44 augubio 1 1.1914 in
autinno 11027 A autunno 1 3.904833584 7 6.53 1.75 1 6.35 2.45 1 7 final 1 yes 2 12 24 Male Right Morning A 2018-11-05 09:59:30 33 autinno 1 1.0206 in
autinno 11027 A autunno 1 3.904833584 7 6.53 1.75 1 6.35 2.45 1 7 final 1 yes 5 6 25 Female Right Morning A 2018-10-08 10:06:46 20 autinno 1 0.8872 in
autinno 11027 A autunno 1 3.904833584 7 6.53 1.75 1 6.35 2.45 1 7 final 1 yes 3 10 25 Female Right Morning A 2018-11-02 10:00:35 14 autinno 1 0.7913 in
autinno 11027 A autunno 1 3.904833584 7 6.53 1.75 1 6.35 2.45 1 7 final 1 yes 5 28 26 Female Right Morning A 2019-01-30 10:01:19 72 autinno 1 0.7842 in
autinno 11027 A autunno 1 3.904833584 7 6.53 1.75 1 6.35 2.45 1 7 final 1 yes 5 18 23 Female Right Morning A 2018-11-19 10:16:43 69 autinno 1 1.1401 in
autinno 11027 A autunno 1 3.904833584 7 6.53 1.75 1 6.35 2.45 1 7 final 1 yes 3 12 24 Male Right Morning A 2018-11-05 09:59:30 51 autinno 1 1.0088 in
autinno 11027 A autunno 1 3.904833584 7 6.53 1.75 1 6.35 2.45 1 7 final 1 yes 2 28 26 Female Right Morning A 2019-01-30 10:01:19 72 autinno 1 0.7318 in
autinno 11027 A autunno 1 3.904833584 7 6.53 1.75 1 6.35 2.45 1 7 final 1 yes 1 18 23 Female Right Morning A 2018-11-19 10:16:43 50 autinno 1 1.4227 in
autinno 11027 A autunno 1 3.904833584 7 6.53 1.75 1 6.35 2.45 1 7 final 1 yes 3 28 26 Female Right Morning A 2019-01-30 10:01:19 21 autinno 1 0.734 in
autinno 11027 A autunno 1 3.904833584 7 6.53 1.75 1 6.35 2.45 1 7 final 1 yes 6 12 24 Male Right Morning A 2018-11-05 09:59:30 4 autinno 1 0.741 in
autinno 11027 A autunno 1 3.904833584 7 6.53 1.75 1 6.35 2.45 1 7 final 1 yes 1 2 20 Male Right Morning A 2018-09-12 08:46:12 54 autinno 1 1.4705 in
autinno 11027 A autunno 1 3.904833584 7 6.53 1.75 1 6.35 2.45 1 7 final 1 yes 1 18 23 Female Right Morning A 2018-11-19 10:16:43 61 autinno 1 1.1395 in
autinno 11027 A autunno 1 3.904833584 7 6.53 1.75 1 6.35 2.45 1 7 final 1 yes 1 2 20 Male Right Morning A 2018-09-12 08:46:12 19 autinno 1 0.9966 in
autinno 11027 A autunno 1 3.904833584 7 6.53 1.75 1 6.35 2.45 1 7 final 1 yes 2 10 25 Female Right Morning A 2018-11-02 10:00:35 43 autinno 1 0.7692 in
autinno 11027 A autunno 1 3.904833584 7 6.53 1.75 1 6.35 2.45 1 7 final 1 yes 1 10 25 Female Right Morning A 2018-11-02 10:00:35 4 autinno 1 1.8245 in
autinno 11027 A autunno 1 3.904833584 7 6.53 1.75 1 6.35 2.45 1 7 final 1 yes 3 6 25 Female Right Morning A 2018-10-08 10:06:46 30 autinno 1 0.8996 in
autinno 11027 A autunno 1 3.904833584 7 6.53 1.75 1 6.35 2.45 1 7 final 1 yes 3 18 23 Female Right Morning A 2018-11-19 10:16:43 1 autinno 1 1.3542 in
autinno 11027 A autunno 1 3.904833584 7 6.53 1.75 1 6.35 2.45 1 7 final 1 yes 1 28 26 Female Right Morning A 2019-01-30 10:01:19 29 autinno 1 0.7732 in
autinno 11027 A autunno 1 3.904833584 7 6.53 1.75 1 6.35 2.45 1 7 final 1 yes 3 2 20 Male Right Morning A 2018-09-12 08:46:12 40 autinno 1 0.8714 in
autinno 11027 A autunno 1 3.904833584 7 6.53 1.75 1 6.35 2.45 1 7 final 1 yes 1 12 24 Male Right Morning A 2018-11-05 09:59:30 35 autinno 1 1.1125 in
autinno 11027 A autunno 1 3.904833584 7 6.53 1.75 1 6.35 2.45 1 7 final 1 yes 1 2 20 Male Right Morning A 2018-09-12 08:46:12 17 autinno 1 1.4197 in
autinno 11027 A autunno 1 3.904833584 7 6.53 1.75 1 6.35 2.45 1 7 final 1 yes 2 6 25 Female Right Morning A 2018-10-08 10:06:46 10 autinno 1 0.9527 in
autinno 11027 A autunno 1 3.904833584 7 6.53 1.75 1 6.35 2.45 1 7 final 1 yes 5 12 24 Male Right Morning A 2018-11-05 09:59:30 52 autinno 1 0.938 in
autinno 11027 A autunno 1 3.904833584 7 6.53 1.75 1 6.35 2.45 1 7 final 1 yes 4 6 25 Female Right Morning A 2018-10-08 10:06:46 54 autinno 1 0.8806 in
autinno 11027 A autunno 1 3.904833584 7 6.53 1.75 1 6.35 2.45 1 7 final 1 yes 1 18 23 Female Right Morning A 2018-11-19 10:16:43 43 autinno 1 1.7386 in
autinno 11027 A autunno 1 3.904833584 7 6.53 1.75 1 6.35 2.45 1 7 final 1 yes 6 18 23 Female Right Morning A 2018-11-19 10:16:43 49 autinno 1 0.9046 in
autinno 11027 A autunno 1 3.904833584 7 6.53 1.75 1 6.35 2.45 1 7 final 1 yes 4 10 25 Female Right Morning A 2018-11-02 10:00:35 56 autinno 1 0.8234 in
autinno 11027 A autunno 1 3.904833584 7 6.53 1.75 1 6.35 2.45 1 7 final 1 yes 2 28 26 Female Right Morning A 2019-01-30 10:01:19 26 autinno 1 0.7064 in
autinno 11027 A autunno 1 3.904833584 7 6.53 1.75 1 6.35 2.45 1 7 final 1 yes 6 2 20 Male Right Morning A 2018-09-12 08:46:12 52 autinno 1 0.6033 in
autinno 11027 A autunno 1 3.904833584 7 6.53 1.75 1 6.35 2.45 1 7 final 1 yes 3 2 20 Male Right Morning A 2018-09-12 08:46:12 1 autinno 1 1.0508 in
autinno 11027 A autunno 1 3.904833584 7 6.53 1.75 1 6.35 2.45 1 7 final 1 yes 2 12 24 Male Right Morning A 2018-11-05 09:59:30 19 autinno 1 0.8838 in
autinno 11027 A autunno 1 3.904833584 7 6.53 1.75 1 6.35 2.45 1 7 final 1 yes 4 28 26 Female Right Morning A 2019-01-30 10:01:19 27 autinno 1 0.678 in
autinno 11027 A autunno 1 3.904833584 7 6.53 1.75 1 6.35 2.45 1 7 final 1 yes 3 28 26 Female Right Morning A 2019-01-30 10:01:19 25 autinno 1 0.6882 in
autinno 11027 A autunno 1 3.904833584 7 6.53 1.75 1 6.35 2.45 1 7 final 1 yes 1 10 25 Female Right Morning A 2018-11-02 10:00:35 34 autinno 1 1.1767 in
autinno 11027 A autunno 1 3.904833584 7 6.53 1.75 1 6.35 2.45 1 7 final 1 yes 3 2 20 Male Right Morning A 2018-09-12 08:46:12 66 autinno 1 0.7269 in
autinno 11027 A autunno 1 3.904833584 7 6.53 1.75 1 6.35 2.45 1 7 final 1 yes 5 6 25 Female Right Morning A 2018-10-08 10:06:46 52 autinno 1 0.9173 in
autinno 11027 A autunno 1 3.904833584 7 6.53 1.75 1 6.35 2.45 1 7 final 1 yes 1 6 25 Female Right Morning A 2018-10-08 10:06:46 51 autinno 1 1.0351 in
autinno 11027 A autunno 1 3.904833584 7 6.53 1.75 1 6.35 2.45 1 7 final 1 yes 2 12 24 Male Right Morning A 2018-11-05 09:59:30 17 autinno 1 1.043 in
autinno 11027 A autunno 1 3.904833584 7 6.53 1.75 1 6.35 2.45 1 7 final 1 yes 6 18 23 Female Right Morning A 2018-11-19 10:16:43 45 autinno 1 1.1999 in
autinno 11027 A autunno 1 3.904833584 7 6.53 1.75 1 6.35 2.45 1 7 final 1 yes 1 12 24 Male Right Morning A 2018-11-05 09:59:30 72 autinno 1 1.0189 in
autinno 11027 A autunno 1 3.904833584 7 6.53 1.75 1 6.35 2.45 1 7 final 1 yes 6 18 23 Female Right Morning A 2018-11-19 10:16:43 55 autinno 1 1.0198 in
autinno 11027 A autunno 1 3.904833584 7 6.53 1.75 1 6.35 2.45 1 7 final 1 yes 4 2 20 Male Right Morning A 2018-09-12 08:46:12 18 autinno 1 0.7884 in
autinno 11027 A autunno 1 3.904833584 7 6.53 1.75 1 6.35 2.45 1 7 final 1 yes 3 28 26 Female Right Morning A 2019-01-30 10:01:19 43 autinno 1 0.6778 in
autinno 11027 A autunno 1 3.904833584 7 6.53 1.75 1 6.35 2.45 1 7 final 1 yes 6 6 25 Female Right Morning A 2018-10-08 10:06:46 30 autinno 1 0.8344 in
autinno 11027 A autunno 1 3.904833584 7 6.53 1.75 1 6.35 2.45 1 7 final 1 yes 4 10 25 Female Right Morning A 2018-11-02 10:00:35 62 autinno 1 0.7584 in
autinno 11027 A autunno 1 3.904833584 7 6.53 1.75 1 6.35 2.45 1 7 final 1 yes 5 6 25 Female Right Morning A 2018-10-08 10:06:46 9 autinno 1 0.8222 in
autinno 11027 A autunno 1 3.904833584 7 6.53 1.75 1 6.35 2.45 1 7 final 1 yes 1 10 25 Female Right Morning A 2018-11-02 10:00:35 43 autinno 1 0.8366 in
autinno 11027 A autunno 1 3.904833584 7 6.53 1.75 1 6.35 2.45 1 7 final 1 yes 1 10 25 Female Right Morning A 2018-11-02 10:00:35 60 autinno 1 0.8852 in
autinno 11027 A autunno 1 3.904833584 7 6.53 1.75 1 6.35 2.45 1 7 final 1 yes 1 10 25 Female Right Morning A 2018-11-02 10:00:35 30 autinno 1 0.9718 in
autinno 11027 A autunno 1 3.904833584 7 6.53 1.75 1 6.35 2.45 1 7 final 1 yes 2 6 25 Female Right Morning A 2018-10-08 10:06:46 44 autinno 1 0.919 in
autinno 11027 A autunno 1 3.904833584 7 6.53 1.75 1 6.35 2.45 1 7 final 1 yes 4 12 24 Male Right Morning A 2018-11-05 09:59:30 19 autinno 1 0.7903 in
autinno 11027 A autunno 1 3.904833584 7 6.53 1.75 1 6.35 2.45 1 7 final 1 yes 5 28 26 Female Right Morning A 2019-01-30 10:01:19 73 autinno 1 0.6759 in
autinno 11027 A autunno 1 3.904833584 7 6.53 1.75 1 6.35 2.45 1 7 final 1 yes 2 18 23 Female Right Morning A 2018-11-19 10:16:43 30 autinno 1 1.6855 in
autinno 11027 A autunno 1 3.904833584 7 6.53 1.75 1 6.35 2.45 1 7 final 1 yes 6 2 20 Male Right Morning A 2018-09-12 08:46:12 14 autinno 1 0.717 in
averuzzo 22031 B NA NA NA NA NA NA NA 6.7 3 3 8 NA NA no 4 9 23 Male Right Morning B 2018-10-30 13:58:50 37 averuzzo 1 0.7044 in
averuzzo 22031 B NA NA NA NA NA NA NA 6.7 3 3 8 NA NA no 3 5 23 Male Right Morning B 2018-10-03 10:11:59 44 averuzzo 1 1.3898 in
averuzzo 22031 B NA NA NA NA NA NA NA 6.7 3 3 8 NA NA no 5 15 29 Female Right Morning B 2018-11-13 10:09:53 22 averuzzo 1 1.021 in
averuzzo 22031 B NA NA NA NA NA NA NA 6.7 3 3 8 NA NA no 1 25 25 Female Right Morning B 2019-01-10 13:55:25 10 averuzzo 1 0.9297 in
averuzzo 22031 B NA NA NA NA NA NA NA 6.7 3 3 8 NA NA no 3 21 20 Female Right Morning B 2018-12-06 13:42:59 70 averuzzo 1 1.3531 in
averuzzo 22031 B NA NA NA NA NA NA NA 6.7 3 3 8 NA NA no 3 15 29 Female Right Morning B 2018-11-13 10:09:53 14 averuzzo 1 1.2833 in
averuzzo 22031 B NA NA NA NA NA NA NA 6.7 3 3 8 NA NA no 2 13 25 Male Right Morning B 2018-11-07 14:04:14 6 averuzzo 1 0.9622 in
averuzzo 22031 B NA NA NA NA NA NA NA 6.7 3 3 8 NA NA no 1 25 25 Female Right Morning B 2019-01-10 13:55:25 52 averuzzo 1 1.1963 in
averuzzo 22031 B NA NA NA NA NA NA NA 6.7 3 3 8 NA NA no 1 9 23 Male Right Morning B 2018-10-30 13:58:50 39 averuzzo 1 0.9161 in
averuzzo 22031 B NA NA NA NA NA NA NA 6.7 3 3 8 NA NA no 2 15 29 Female Right Morning B 2018-11-13 10:09:53 51 averuzzo 1 1.1897 in
averuzzo 22031 B NA NA NA NA NA NA NA 6.7 3 3 8 NA NA no 2 5 23 Male Right Morning B 2018-10-03 10:11:59 73 averuzzo 1 1.7667 in
averuzzo 22031 B NA NA NA NA NA NA NA 6.7 3 3 8 NA NA no 5 21 20 Female Right Morning B 2018-12-06 13:42:59 74 averuzzo 1 1.0778 in
averuzzo 22031 B NA NA NA NA NA NA NA 6.7 3 3 8 NA NA no 4 24 26 Female Right Morning A 2019-01-10 10:07:25 36 averuzzo 1 1.7117 in
averuzzo 22031 B NA NA NA NA NA NA NA 6.7 3 3 8 NA NA no 2 21 20 Female Right Morning B 2018-12-06 13:42:59 66 averuzzo 1 1.4167 in
averuzzo 22031 B NA NA NA NA NA NA NA 6.7 3 3 8 NA NA no 3 24 26 Female Right Morning A 2019-01-10 10:07:25 75 averuzzo 1 1.4765 in
averuzzo 22031 B NA NA NA NA NA NA NA 6.7 3 3 8 NA NA no 2 13 25 Male Right Morning B 2018-11-07 14:04:14 9 averuzzo 1 0.9672 in
averuzzo 22031 B NA NA NA NA NA NA NA 6.7 3 3 8 NA NA no 6 21 20 Female Right Morning B 2018-12-06 13:42:59 40 averuzzo 1 1.1281 in
averuzzo 22031 B NA NA NA NA NA NA NA 6.7 3 3 8 NA NA no 5 21 20 Female Right Morning B 2018-12-06 13:42:59 52 averuzzo 1 0.7508 in
averuzzo 22031 B NA NA NA NA NA NA NA 6.7 3 3 8 NA NA no 2 13 25 Male Right Morning B 2018-11-07 14:04:14 70 averuzzo 1 1.0788 in
averuzzo 22031 B NA NA NA NA NA NA NA 6.7 3 3 8 NA NA no 5 19 28 Female Right Morning B 2018-12-03 10:03:01 32 averuzzo 1 1.0511 in
averuzzo 22031 B NA NA NA NA NA NA NA 6.7 3 3 8 NA NA no 6 13 25 Male Right Morning B 2018-11-07 14:04:14 1 averuzzo 1 1.047 in
averuzzo 22031 B NA NA NA NA NA NA NA 6.7 3 3 8 NA NA no 5 19 28 Female Right Morning B 2018-12-03 10:03:01 68 averuzzo 1 1.0141 in
averuzzo 22031 B NA NA NA NA NA NA NA 6.7 3 3 8 NA NA no 6 5 23 Male Right Morning B 2018-10-03 10:11:59 40 averuzzo 1 1.2273 in
averuzzo 22031 B NA NA NA NA NA NA NA 6.7 3 3 8 NA NA no 4 25 25 Female Right Morning B 2019-01-10 13:55:25 32 averuzzo 1 0.9153 in
averuzzo 22031 B NA NA NA NA NA NA NA 6.7 3 3 8 NA NA no 5 21 20 Female Right Morning B 2018-12-06 13:42:59 59 averuzzo 1 0.7753 in
averuzzo 22031 B NA NA NA NA NA NA NA 6.7 3 3 8 NA NA no 5 15 29 Female Right Morning B 2018-11-13 10:09:53 60 averuzzo 1 0.8222 in
averuzzo 22031 B NA NA NA NA NA NA NA 6.7 3 3 8 NA NA no 1 9 23 Male Right Morning B 2018-10-30 13:58:50 16 averuzzo 1 0.9576 in
averuzzo 22031 B NA NA NA NA NA NA NA 6.7 3 3 8 NA NA no 6 25 25 Female Right Morning B 2019-01-10 13:55:25 31 averuzzo 1 1.01 in
averuzzo 22031 B NA NA NA NA NA NA NA 6.7 3 3 8 NA NA no 6 24 26 Female Right Morning A 2019-01-10 10:07:25 9 averuzzo 1 1.0078 in
averuzzo 22031 B NA NA NA NA NA NA NA 6.7 3 3 8 NA NA no 5 24 26 Female Right Morning A 2019-01-10 10:07:25 30 averuzzo 1 1.2774 in
averuzzo 22031 B NA NA NA NA NA NA NA 6.7 3 3 8 NA NA no 4 15 29 Female Right Morning B 2018-11-13 10:09:53 3 averuzzo 1 1.1573 in
averuzzo 22031 B NA NA NA NA NA NA NA 6.7 3 3 8 NA NA no 1 5 23 Male Right Morning B 2018-10-03 10:11:59 43 averuzzo 1 2.198 in
averuzzo 22031 B NA NA NA NA NA NA NA 6.7 3 3 8 NA NA no 2 24 26 Female Right Morning A 2019-01-10 10:07:25 3 averuzzo 1 1.631 in
averuzzo 22031 B NA NA NA NA NA NA NA 6.7 3 3 8 NA NA no 2 9 23 Male Right Morning B 2018-10-30 13:58:50 1 averuzzo 1 0.8976 in
averuzzo 22031 B NA NA NA NA NA NA NA 6.7 3 3 8 NA NA no 4 5 23 Male Right Morning B 2018-10-03 10:11:59 52 averuzzo 1 1.0724 in
averuzzo 22031 B NA NA NA NA NA NA NA 6.7 3 3 8 NA NA no 4 5 23 Male Right Morning B 2018-10-03 10:11:59 10 averuzzo 1 1.4055 in
averuzzo 22031 B NA NA NA NA NA NA NA 6.7 3 3 8 NA NA no 3 19 28 Female Right Morning B 2018-12-03 10:03:01 36 averuzzo 1 1.0349 in
averuzzo 22031 B NA NA NA NA NA NA NA 6.7 3 3 8 NA NA no 2 19 28 Female Right Morning B 2018-12-03 10:03:01 21 averuzzo 1 1.2533 in
averuzzo 22031 B NA NA NA NA NA NA NA 6.7 3 3 8 NA NA no 2 25 25 Female Right Morning B 2019-01-10 13:55:25 30 averuzzo 1 1.2065 in
averuzzo 22031 B NA NA NA NA NA NA NA 6.7 3 3 8 NA NA no 4 9 23 Male Right Morning B 2018-10-30 13:58:50 62 averuzzo 1 1.18 in
averuzzo 22031 B NA NA NA NA NA NA NA 6.7 3 3 8 NA NA no 5 25 25 Female Right Morning B 2019-01-10 13:55:25 28 averuzzo 1 0.9077 in
averuzzo 22031 B NA NA NA NA NA NA NA 6.7 3 3 8 NA NA no 2 19 28 Female Right Morning B 2018-12-03 10:03:01 61 averuzzo 1 1.2027 in
averuzzo 22031 B NA NA NA NA NA NA NA 6.7 3 3 8 NA NA no 6 15 29 Female Right Morning B 2018-11-13 10:09:53 31 averuzzo 1 0.9688 in
averuzzo 22031 B NA NA NA NA NA NA NA 6.7 3 3 8 NA NA no 5 25 25 Female Right Morning B 2019-01-10 13:55:25 12 averuzzo 1 1.0483 in
averuzzo 22031 B NA NA NA NA NA NA NA 6.7 3 3 8 NA NA no 3 9 23 Male Right Morning B 2018-10-30 13:58:50 57 averuzzo 1 0.8519 in
averuzzo 22031 B NA NA NA NA NA NA NA 6.7 3 3 8 NA NA no 6 15 29 Female Right Morning B 2018-11-13 10:09:53 25 averuzzo 1 1.144 in
averuzzo 22031 B NA NA NA NA NA NA NA 6.7 3 3 8 NA NA no 3 19 28 Female Right Morning B 2018-12-03 10:03:01 5 averuzzo 1 1.0501 in
averuzzo 22031 B NA NA NA NA NA NA NA 6.7 3 3 8 NA NA no 5 25 25 Female Right Morning B 2019-01-10 13:55:25 31 averuzzo 1 0.8582 in
averuzzo 22031 B NA NA NA NA NA NA NA 6.7 3 3 8 NA NA no 3 5 23 Male Right Morning B 2018-10-03 10:11:59 69 averuzzo 1 0.9728 in
averuzzo 22031 B NA NA NA NA NA NA NA 6.7 3 3 8 NA NA no 5 9 23 Male Right Morning B 2018-10-30 13:58:50 58 averuzzo 1 0.7969 in
averuzzo 22031 B NA NA NA NA NA NA NA 6.7 3 3 8 NA NA no 6 21 20 Female Right Morning B 2018-12-06 13:42:59 45 averuzzo 1 0.8373 in
averuzzo 22031 B NA NA NA NA NA NA NA 6.7 3 3 8 NA NA no 4 5 23 Male Right Morning B 2018-10-03 10:11:59 67 averuzzo 1 1.2 in
averuzzo 22031 B NA NA NA NA NA NA NA 6.7 3 3 8 NA NA no 2 15 29 Female Right Morning B 2018-11-13 10:09:53 13 averuzzo 1 1.3238 in
averuzzo 22031 B NA NA NA NA NA NA NA 6.7 3 3 8 NA NA no 6 21 20 Female Right Morning B 2018-12-06 13:42:59 28 averuzzo 1 1.1478 in
averuzzo 22031 B NA NA NA NA NA NA NA 6.7 3 3 8 NA NA no 2 13 25 Male Right Morning B 2018-11-07 14:04:14 48 averuzzo 1 0.9952 in
averuzzo 22031 B NA NA NA NA NA NA NA 6.7 3 3 8 NA NA no 6 13 25 Male Right Morning B 2018-11-07 14:04:14 57 averuzzo 1 1.0107 in
averuzzo 22031 B NA NA NA NA NA NA NA 6.7 3 3 8 NA NA no 4 24 26 Female Right Morning A 2019-01-10 10:07:25 5 averuzzo 1 1.0548 in
averuzzo 22031 B NA NA NA NA NA NA NA 6.7 3 3 8 NA NA no 6 24 26 Female Right Morning A 2019-01-10 10:07:25 73 averuzzo 1 1.1771 in
averuzzo 22031 B NA NA NA NA NA NA NA 6.7 3 3 8 NA NA no 6 24 26 Female Right Morning A 2019-01-10 10:07:25 70 averuzzo 1 1.1342 in
averuzzo 22031 B NA NA NA NA NA NA NA 6.7 3 3 8 NA NA no 5 9 23 Male Right Morning B 2018-10-30 13:58:50 75 averuzzo 1 0.8558 in
averuzzo 22031 B NA NA NA NA NA NA NA 6.7 3 3 8 NA NA no 4 9 23 Male Right Morning B 2018-10-30 13:58:50 29 averuzzo 1 0.8081 in
averuzzo 22031 B NA NA NA NA NA NA NA 6.7 3 3 8 NA NA no 5 24 26 Female Right Morning A 2019-01-10 10:07:25 19 averuzzo 1 1.3851 in
averuzzo 22031 B NA NA NA NA NA NA NA 6.7 3 3 8 NA NA no 4 15 29 Female Right Morning B 2018-11-13 10:09:53 42 averuzzo 1 1.1933 in
averuzzo 22031 B NA NA NA NA NA NA NA 6.7 3 3 8 NA NA no 1 13 25 Male Right Morning B 2018-11-07 14:04:14 69 averuzzo 1 1.0599 in
averuzzo 22031 B NA NA NA NA NA NA NA 6.7 3 3 8 NA NA no 3 19 28 Female Right Morning B 2018-12-03 10:03:01 23 averuzzo 1 1.0077 in
averuzzo 22031 B NA NA NA NA NA NA NA 6.7 3 3 8 NA NA no 1 25 25 Female Right Morning B 2019-01-10 13:55:25 70 averuzzo 1 0.9716 in
averuzzo 22031 B NA NA NA NA NA NA NA 6.7 3 3 8 NA NA no 5 5 23 Male Right Morning B 2018-10-03 10:11:59 56 averuzzo 1 1.3815 in
averuzzo 22031 B NA NA NA NA NA NA NA 6.7 3 3 8 NA NA no 4 19 28 Female Right Morning B 2018-12-03 10:03:01 62 averuzzo 1 1.2601 in
averuzzo 22031 B NA NA NA NA NA NA NA 6.7 3 3 8 NA NA no 5 19 28 Female Right Morning B 2018-12-03 10:03:01 67 averuzzo 1 1.0639 in
