Word Trial.ID list wordNeighbour N zipf.wordNeighbour len.wordNeighbour bigram.zipf.wordNeighbour old20.wordNeighbour old1.wordNeighbour bigram.zipf.novelWord old20.novelWord old1.novelWord len.novelWord pos_deviation levDistToWordNeigh baseWord Blocco Subject Age Gender Handedness Session List Data OraStart TrialCount rt Resp Acc learning lexicality Index
collepio 11013 A collegio 1 3.686467568 8 6.82 1.75 1 6.81 2.1 1 8 final 1 yes 1 4 22 Male Right Morning A 2018-09-19 13:50:24 1 962 2 1 un novelword 1
inguilla 11005 A anguilla 1 3.016998033 8 6.79 2.1 1 6.77 2.4 1 8 initial 1 yes 1 16 24 Male Right Morning A 2018-11-15 10:03:56 1 905 1 0 un novelword 1
pievra 21025 B piovra 1 2.764954498 6 6.75 1.85 1 6.72 1.8 1 6 middle 1 yes 1 7 21 Male Right Morning B 2018-10-08 13:50:59 1 651 2 1 un novelword 1
scapippo 12045 A NA NA NA NA NA NA NA 6.65 2.75 2 8 NA NA no 1 20 32 Female Right Morning A 2018-12-03 13:26:00 1 1595 1 0 un novelword 1
suomio 12048 A NA NA NA NA NA NA NA 6.64 1.9 1 6 NA NA no 1 14 22 Female Right Morning A 2018-11-12 13:44:47 1 1566 2 1 un novelword 1
tulifano 21029 B tulipano 1 2.614169104 8 6.83 2.45 1 6.79 2.4 1 8 middle 1 yes 1 23 32 Female Right Morning B 2019-01-08 13:42:19 1 1073 1 0 un novelword 1
tullordi 12050 A NA NA NA NA NA NA NA 6.71 3 3 8 NA NA no 1 22 25 Male Right Morning A 2019-01-08 10:00:13 1 976 2 1 un novelword 1
furglie NA NA NA NA NA NA NA NA NA NA NA NA NA NA NA NA 1 17 24 Male Right Morning B 2018-11-15 14:10:31 1 1478 2 0 un NA 1
onvalto NA NA NA NA NA NA NA NA NA NA NA NA NA NA NA NA 1 27 20 Female Right Morning B 2019-01-21 13:43:02 1 1061 1 1 un NA 1
servefro NA NA NA NA NA NA NA NA NA NA NA NA NA NA NA NA 1 8 24 Female Right Morning A 2018-10-16 13:48:31 1 847 2 0 un NA 1
ullotra NA NA NA NA NA NA NA NA NA NA NA NA NA NA NA NA 1 26 27 Female Right Morning A 2019-01-21 10:01:44 1 903 1 1 un NA 1
ulzare NA NA NA NA NA NA NA NA NA NA NA NA NA NA NA NA 1 1 28 Male Right Morning B 2018-09-04 10:04:35 1 735 2 0 un NA 1
imbide NA NA NA NA NA NA NA NA NA NA NA NA NA NA NA NA 1 3 25 Female Right Morning B 2018-09-19 09:54:40 1 1267 2 0 un NA 1
scomenu NA NA NA NA NA NA NA NA NA NA NA NA NA NA NA NA 1 11 25 Male Right Morning B 2018-11-02 13:41:00 1 909 1 1 un NA 1
amulero 11003 A amuleto 1 3.319645514 7 6.79 2 1 6.91 2.2 1 7 final 1 yes 1 26 27 Female Right Morning A 2019-01-21 10:01:44 2 588 2 1 un novelword 1
aseddoto 11004 A aneddoto 1 3.010467166 8 6.85 2.65 1 6.75 2.8 1 8 initial 1 yes 1 22 25 Male Right Morning A 2019-01-08 10:00:13 2 1984 1 0 un novelword 1
favange 21015 B falange 1 2.533345911 7 6.86 1.85 1 6.76 2.15 1 7 middle 1 yes 1 1 28 Male Right Morning B 2018-09-04 10:04:35 2 887 1 0 un novelword 1
fomirto 12038 A NA NA NA NA NA NA NA 6.73 2.45 2 7 NA NA no 1 14 22 Female Right Morning A 2018-11-12 13:44:47 2 1702 1 0 un novelword 1
frutirca 12040 A NA NA NA NA NA NA NA 6.69 2.95 2 8 NA NA no 1 8 24 Female Right Morning A 2018-10-16 13:48:31 2 1291 1 0 un novelword 1
gannolo 21007 B cannolo 1 2.689233784 7 6.91 1.95 1 6.86 1.95 1 7 initial 1 yes 1 17 24 Male Right Morning B 2018-11-15 14:10:31 2 1336 2 1 un novelword 1
gerilla 11019 A gorilla 1 3.749031532 7 6.89 1.85 1 6.98 1.8 1 7 initial 1 yes 1 20 32 Female Right Morning A 2018-12-03 13:26:00 2 1724 1 0 un novelword 1
scatra 22045 B NA NA NA NA NA NA NA 7 1.6 1 6 NA NA no 1 11 25 Male Right Morning B 2018-11-02 13:41:00 2 737 2 1 un novelword 1
spitana 12047 A NA NA NA NA NA NA NA 6.93 1.95 1 7 NA NA no 1 16 24 Male Right Morning A 2018-11-15 10:03:56 2 1119 1 0 un novelword 1
vimitodi 22050 B NA NA NA NA NA NA NA 6.78 2.8 2 8 NA NA no 1 23 32 Female Right Morning B 2019-01-08 13:42:19 2 1576 2 1 un novelword 1
dratemo NA NA NA NA NA NA NA NA NA NA NA NA NA NA NA NA 1 4 22 Male Right Morning A 2018-09-19 13:50:24 2 1290 1 1 un NA 1
iscosare NA NA NA NA NA NA NA NA NA NA NA NA NA NA NA NA 1 3 25 Female Right Morning B 2018-09-19 09:54:40 2 2001 -1 0 un NA 1
matopre NA NA NA NA NA NA NA NA NA NA NA NA NA NA NA NA 1 27 20 Female Right Morning B 2019-01-21 13:43:02 2 1558 1 1 un NA 1
ordotti NA NA NA NA NA NA NA NA NA NA NA NA NA NA NA NA 1 7 21 Male Right Morning B 2018-10-08 13:50:59 2 701 1 1 un NA 1
antensa 11007 A antenna 1 3.425187354 7 7.02 1.95 1 7.01 1.9 1 7 final 1 yes 1 22 25 Male Right Morning A 2019-01-08 10:00:13 3 1919 1 0 un novelword 1
bottefa 21006 B bottega 0 3.468532444 7 6.76 1.95 1 6.89 1.95 1 7 final 1 yes 1 3 25 Female Right Morning B 2018-09-19 09:54:40 3 1889 2 1 un novelword 1
dofile 21012 B docile 1 2.965440196 6 6.79 1.85 1 6.67 1.95 1 6 middle 1 yes 1 27 20 Female Right Morning B 2019-01-21 13:43:02 3 1207 2 1 un novelword 1
gerilla 11019 A gorilla 1 3.749031532 7 6.89 1.85 1 6.98 1.8 1 7 initial 1 yes 1 8 24 Female Right Morning A 2018-10-16 13:48:31 3 1517 2 1 un novelword 1
anarlo NA NA NA NA NA NA NA NA NA NA NA NA NA NA NA NA 1 20 32 Female Right Morning A 2018-12-03 13:26:00 3 1410 1 1 un NA 1
dofuomo NA NA NA NA NA NA NA NA NA NA NA NA NA NA NA NA 1 1 28 Male Right Morning B 2018-09-04 10:04:35 3 1225 2 0 un NA 1
funtilgi NA NA NA NA NA NA NA NA NA NA NA NA NA NA NA NA 1 4 22 Male Right Morning A 2018-09-19 13:50:24 3 1670 1 1 un NA 1
iddanso NA NA NA NA NA NA NA NA NA NA NA NA NA NA NA NA 1 7 21 Male Right Morning B 2018-10-08 13:50:59 3 597 1 1 un NA 1
noganama NA NA NA NA NA NA NA NA NA NA NA NA NA NA NA NA 1 11 25 Male Right Morning B 2018-11-02 13:41:00 3 1184 1 1 un NA 1
nononti NA NA NA NA NA NA NA NA NA NA NA NA NA NA NA NA 1 26 27 Female Right Morning A 2019-01-21 10:01:44 3 792 1 1 un NA 1
soglimo NA NA NA NA NA NA NA NA NA NA NA NA NA NA NA NA 1 23 32 Female Right Morning B 2019-01-08 13:42:19 3 1215 2 0 un NA 1
ancerche NA NA NA NA NA NA NA NA NA NA NA NA NA NA NA NA 1 17 24 Male Right Morning B 2018-11-15 14:10:31 3 1191 1 1 un NA 1
ituste NA NA NA NA NA NA NA NA NA NA NA NA NA NA NA NA 1 16 24 Male Right Morning A 2018-11-15 10:03:56 3 1639 1 1 un NA 1
urraisto NA NA NA NA NA NA NA NA NA NA NA NA NA NA NA NA 1 14 22 Female Right Morning A 2018-11-12 13:44:47 3 1217 1 1 un NA 1
augubio 21004 B augurio 1 2.942971678 7 6.68 1.85 1 6.41 2.7 1 7 middle 1 yes 1 17 24 Male Right Morning B 2018-11-15 14:10:31 4 1111 2 1 un novelword 1
bottefa 21006 B bottega 0 3.468532444 7 6.76 1.95 1 6.89 1.95 1 7 final 1 yes 1 1 28 Male Right Morning B 2018-09-04 10:04:35 4 2001 -1 0 un novelword 1
gannolo 21007 B cannolo 1 2.689233784 7 6.91 1.95 1 6.86 1.95 1 7 initial 1 yes 1 23 32 Female Right Morning B 2019-01-08 13:42:19 4 1034 2 1 un novelword 1
omnesia 11002 A amnesia 1 3.488683741 7 6.9 1.85 1 6.87 2.15 1 7 initial 1 yes 1 22 25 Male Right Morning A 2019-01-08 10:00:13 4 2001 -1 0 un novelword 1
sentesto 12046 A NA NA NA NA NA NA NA 7.01 2 2 8 NA NA no 1 8 24 Female Right Morning A 2018-10-16 13:48:31 4 1166 2 1 un novelword 1
suomio 12048 A NA NA NA NA NA NA NA 6.64 1.9 1 6 NA NA no 1 14 22 Female Right Morning A 2018-11-12 13:44:47 4 790 2 1 un novelword 2
chialco NA NA NA NA NA NA NA NA NA NA NA NA NA NA NA NA 1 3 25 Female Right Morning B 2018-09-19 09:54:40 4 1788 2 0 un NA 1
mereedei NA NA NA NA NA NA NA NA NA NA NA NA NA NA NA NA 1 27 20 Female Right Morning B 2019-01-21 13:43:02 4 1893 1 1 un NA 1
onvalto NA NA NA NA NA NA NA NA NA NA NA NA NA NA NA NA 1 20 32 Female Right Morning A 2018-12-03 13:26:00 4 2001 -1 0 un NA 1
verezza NA NA NA NA NA NA NA NA NA NA NA NA NA NA NA NA 1 16 24 Male Right Morning A 2018-11-15 10:03:56 4 1276 2 0 un NA 1
peganta NA NA NA NA NA NA NA NA NA NA NA NA NA NA NA NA 1 11 25 Male Right Morning B 2018-11-02 13:41:00 4 1158 2 0 un NA 1
siglisci NA NA NA NA NA NA NA NA NA NA NA NA NA NA NA NA 1 4 22 Male Right Morning A 2018-09-19 13:50:24 4 1936 1 1 un NA 1
ursolto NA NA NA NA NA NA NA NA NA NA NA NA NA NA NA NA 1 26 27 Female Right Morning A 2019-01-21 10:01:44 4 349 2 0 un NA 1
redeli NA NA NA NA NA NA NA NA NA NA NA NA NA NA NA NA 1 7 21 Male Right Morning B 2018-10-08 13:50:59 4 386 2 0 un NA 1
antensa 11007 A antenna 1 3.425187354 7 7.02 1.95 1 7.01 1.9 1 7 final 1 yes 1 8 24 Female Right Morning A 2018-10-16 13:48:31 5 1132 1 0 un novelword 1
bandicci 22033 B NA NA NA NA NA NA NA 6.9 1.9 1 8 NA NA no 1 17 24 Male Right Morning B 2018-11-15 14:10:31 5 752 2 1 un novelword 1
bregge 21018 B gregge 1 3.392320354 6 6.71 1.85 1 6.7 1.9 1 6 initial 1 yes 1 27 20 Female Right Morning B 2019-01-21 13:43:02 5 1787 1 0 un novelword 1
favange 21015 B falange 1 2.533345911 7 6.86 1.85 1 6.76 2.15 1 7 middle 1 yes 1 1 28 Male Right Morning B 2018-09-04 10:04:35 5 1879 2 1 un novelword 2
fomirto 12038 A NA NA NA NA NA NA NA 6.73 2.45 2 7 NA NA no 1 14 22 Female Right Morning A 2018-11-12 13:44:47 5 568 2 1 un novelword 2
gerilla 11019 A gorilla 1 3.749031532 7 6.89 1.85 1 6.98 1.8 1 7 initial 1 yes 1 20 32 Female Right Morning A 2018-12-03 13:26:00 5 714 2 1 un novelword 2
scapippo 12045 A NA NA NA NA NA NA NA 6.65 2.75 2 8 NA NA no 1 16 24 Male Right Morning A 2018-11-15 10:03:56 5 1494 2 1 un novelword 1
scatra 22045 B NA NA NA NA NA NA NA 7 1.6 1 6 NA NA no 1 11 25 Male Right Morning B 2018-11-02 13:41:00 5 952 2 1 un novelword 2
spiaglia 21026 B spiaggia 1 4.475241145 8 6.79 1.8 1 6.85 1.95 1 8 final 1 yes 1 23 32 Female Right Morning B 2019-01-08 13:42:19 5 617 1 0 un novelword 1
proffe NA NA NA NA NA NA NA NA NA NA NA NA NA NA NA NA 1 3 25 Female Right Morning B 2018-09-19 09:54:40 5 1437 1 1 un NA 1
standi NA NA NA NA NA NA NA NA NA NA NA NA NA NA NA NA 1 22 25 Male Right Morning A 2019-01-08 10:00:13 5 1220 1 1 un NA 1
tefuogo NA NA NA NA NA NA NA NA NA NA NA NA NA NA NA NA 1 26 27 Female Right Morning A 2019-01-21 10:01:44 5 720 1 1 un NA 1
dovraca NA NA NA NA NA NA NA NA NA NA NA NA NA NA NA NA 1 4 22 Male Right Morning A 2018-09-19 13:50:24 5 1588 2 0 un NA 1
puliono NA NA NA NA NA NA NA NA NA NA NA NA NA NA NA NA 1 7 21 Male Right Morning B 2018-10-08 13:50:59 5 692 2 0 un NA 1
anguato 21001 B agguato 1 3.494119287 7 6.76 1.9 1 6.91 1.75 1 7 initial 1 yes 1 27 20 Female Right Morning B 2019-01-21 13:43:02 6 2001 -1 0 un novelword 1
buscio 11020 A guscio 1 3.558279151 6 6.7 1.8 1 6.69 1.75 1 6 initial 1 yes 1 22 25 Male Right Morning A 2019-01-08 10:00:13 6 1924 1 0 un novelword 1
collepio 11013 A collegio 1 3.686467568 8 6.82 1.75 1 6.81 2.1 1 8 final 1 yes 1 4 22 Male Right Morning A 2018-09-19 13:50:24 6 1021 2 1 un novelword 2
cortario 22037 B NA NA NA NA NA NA NA 7.03 1.85 1 8 NA NA no 1 11 25 Male Right Morning B 2018-11-02 13:41:00 6 1263 2 1 un novelword 1
igiana 21019 B iguana 1 2.81931216 6 6.8 1.9 1 6.95 1.9 1 6 middle 1 yes 1 7 21 Male Right Morning B 2018-10-08 13:50:59 6 716 2 1 un novelword 1
mastenza 12043 A NA NA NA NA NA NA NA 6.9 2.25 2 8 NA NA no 1 20 32 Female Right Morning A 2018-12-03 13:26:00 6 1428 2 1 un novelword 1
osbrica 11023 A ostrica 0 2.942971678 7 6.98 1.95 1 6.86 2.2 1 7 middle 1 yes 1 14 22 Female Right Morning A 2018-11-12 13:44:47 6 1441 1 0 un novelword 1
tulifano 21029 B tulipano 1 2.614169104 8 6.83 2.45 1 6.79 2.4 1 8 middle 1 yes 1 3 25 Female Right Morning B 2018-09-19 09:54:40 6 1569 1 0 un novelword 1
alcodi NA NA NA NA NA NA NA NA NA NA NA NA NA NA NA NA 1 1 28 Male Right Morning B 2018-09-04 10:04:35 6 1240 2 0 un NA 1
amorce NA NA NA NA NA NA NA NA NA NA NA NA NA NA NA NA 1 23 32 Female Right Morning B 2019-01-08 13:42:19 6 1209 1 1 un NA 1
ardalli NA NA NA NA NA NA NA NA NA NA NA NA NA NA NA NA 1 17 24 Male Right Morning B 2018-11-15 14:10:31 6 962 1 1 un NA 1
malludi NA NA NA NA NA NA NA NA NA NA NA NA NA NA NA NA 1 26 27 Female Right Morning A 2019-01-21 10:01:44 6 864 1 1 un NA 1
osalei NA NA NA NA NA NA NA NA NA NA NA NA NA NA NA NA 1 8 24 Female Right Morning A 2018-10-16 13:48:31 6 967 1 1 un NA 1
derche NA NA NA NA NA NA NA NA NA NA NA NA NA NA NA NA 1 16 24 Male Right Morning A 2018-11-15 10:03:56 6 1092 1 1 un NA 1
antensa 11007 A antenna 1 3.425187354 7 7.02 1.95 1 7.01 1.9 1 7 final 1 yes 1 4 22 Male Right Morning A 2018-09-19 13:50:24 7 1856 1 0 un novelword 1
averuzzo 22031 B NA NA NA NA NA NA NA 6.7 3 3 8 NA NA no 1 3 25 Female Right Morning B 2018-09-19 09:54:40 7 840 2 1 un novelword 1
commegia 11014 A commedia 1 3.880232089 8 6.83 2.15 1 6.8 2.45 1 8 middle 1 yes 1 22 25 Male Right Morning A 2019-01-08 10:00:13 7 1062 2 1 un novelword 1
frutirca 12040 A NA NA NA NA NA NA NA 6.69 2.95 2 8 NA NA no 1 8 24 Female Right Morning A 2018-10-16 13:48:31 7 2001 -1 0 un novelword 2
scapippo 12045 A NA NA NA NA NA NA NA 6.65 2.75 2 8 NA NA no 1 26 27 Female Right Morning A 2019-01-21 10:01:44 7 671 2 1 un novelword 1
spriage 22047 B NA NA NA NA NA NA NA 6.84 2 2 7 NA NA no 1 17 24 Male Right Morning B 2018-11-15 14:10:31 7 1084 1 0 un novelword 1
ameneca NA NA NA NA NA NA NA NA NA NA NA NA NA NA NA NA 1 20 32 Female Right Morning A 2018-12-03 13:26:00 7 2001 -1 0 un NA 1
impotro NA NA NA NA NA NA NA NA NA NA NA NA NA NA NA NA 1 1 28 Male Right Morning B 2018-09-04 10:04:35 7 1835 1 1 un NA 1
invimmi NA NA NA NA NA NA NA NA NA NA NA NA NA NA NA NA 1 14 22 Female Right Morning A 2018-11-12 13:44:47 7 1807 2 0 un NA 1
iocaco NA NA NA NA NA NA NA NA NA NA NA NA NA NA NA NA 1 23 32 Female Right Morning B 2019-01-08 13:42:19 7 2001 -1 0 un NA 1
ravoglio NA NA NA NA NA NA NA NA NA NA NA NA NA NA NA NA 1 7 21 Male Right Morning B 2018-10-08 13:50:59 7 706 1 1 un NA 1
vedolle NA NA NA NA NA NA NA NA NA NA NA NA NA NA NA NA 1 11 25 Male Right Morning B 2018-11-02 13:41:00 7 1133 1 1 un NA 1
oratocci NA NA NA NA NA NA NA NA NA NA NA NA NA NA NA NA 1 27 20 Female Right Morning B 2019-01-21 13:43:02 7 2001 -1 0 un NA 1
iffunzi NA NA NA NA NA NA NA NA NA NA NA NA NA NA NA NA 1 16 24 Male Right Morning A 2018-11-15 10:03:56 7 1383 2 0 un NA 1
chiosto 21009 B chiosco 1 3.327643797 7 6.85 1.9 1 6.89 1.65 1 7 final 1 yes 1 17 24 Male Right Morning B 2018-11-15 14:10:31 8 1092 1 0 un novelword 1
frilmodo 12039 A NA NA NA NA NA NA NA 6.71 3 3 8 NA NA no 1 20 32 Female Right Morning A 2018-12-03 13:26:00 8 2001 -1 0 un novelword 1
menpola 21021 B mensola 1 3.085792887 7 6.85 1.95 1 6.74 1.9 1 7 middle 1 yes 1 27 20 Female Right Morning B 2019-01-21 13:43:02 8 2001 -1 0 un novelword 1
ospigio 21023 B ospizio 1 3.444987683 7 6.66 2.2 1 6.7 2.4 1 7 final 1 yes 1 23 32 Female Right Morning B 2019-01-08 13:42:19 8 994 2 1 un novelword 1
ospigio 21023 B ospizio 1 3.444987683 7 6.66 2.2 1 6.7 2.4 1 7 final 1 yes 1 11 25 Male Right Morning B 2018-11-02 13:41:00 8 994 2 1 un novelword 1
tulifano 21029 B tulipano 1 2.614169104 8 6.83 2.45 1 6.79 2.4 1 8 middle 1 yes 1 3 25 Female Right Morning B 2018-09-19 09:54:40 8 2001 -1 0 un novelword 2
chialco NA NA NA NA NA NA NA NA NA NA NA NA NA NA NA NA 1 8 24 Female Right Morning A 2018-10-16 13:48:31 8 1489 2 0 un NA 1
fatanvo NA NA NA NA NA NA NA NA NA NA NA NA NA NA NA NA 1 4 22 Male Right Morning A 2018-09-19 13:50:24 8 2001 -1 0 un NA 1
gioropo NA NA NA NA NA NA NA NA NA NA NA NA NA NA NA NA 1 22 25 Male Right Morning A 2019-01-08 10:00:13 8 2001 -1 0 un NA 1
licolo NA NA NA NA NA NA NA NA NA NA NA NA NA NA NA NA 1 26 27 Female Right Morning A 2019-01-21 10:01:44 8 638 1 1 un NA 1
romifulo NA NA NA NA NA NA NA NA NA NA NA NA NA NA NA NA 1 1 28 Male Right Morning B 2018-09-04 10:04:35 8 1495 2 0 un NA 1
semprin NA NA NA NA NA NA NA NA NA NA NA NA NA NA NA NA 1 7 21 Male Right Morning B 2018-10-08 13:50:59 8 1126 2 0 un NA 1
ugnade NA NA NA NA NA NA NA NA NA NA NA NA NA NA NA NA 1 16 24 Male Right Morning A 2018-11-15 10:03:56 8 1375 1 1 un NA 1
lemarso NA NA NA NA NA NA NA NA NA NA NA NA NA NA NA NA 1 14 22 Female Right Morning A 2018-11-12 13:44:47 8 1051 2 0 un NA 1
apostomo 11008 A apostolo 1 2.715968037 8 6.85 2 1 6.84 2.55 1 8 final 1 yes 1 22 25 Male Right Morning A 2019-01-08 10:00:13 9 1829 2 1 un novelword 1
apostomo 11008 A apostolo 1 2.715968037 8 6.85 2 1 6.84 2.55 1 8 final 1 yes 1 26 27 Female Right Morning A 2019-01-21 10:01:44 9 833 2 1 un novelword 1
bottefa 21006 B bottega 0 3.468532444 7 6.76 1.95 1 6.89 1.95 1 7 final 1 yes 1 11 25 Male Right Morning B 2018-11-02 13:41:00 9 1778 1 0 un novelword 1
ospigio 21023 B ospizio 1 3.444987683 7 6.66 2.2 1 6.7 2.4 1 7 final 1 yes 1 1 28 Male Right Morning B 2018-09-04 10:04:35 9 1815 2 1 un novelword 1
tulifano 21029 B tulipano 1 2.614169104 8 6.83 2.45 1 6.79 2.4 1 8 middle 1 yes 1 23 32 Female Right Morning B 2019-01-08 13:42:19 9 1828 2 1 un novelword 2
andensi NA NA NA NA NA NA NA NA NA NA NA NA NA NA NA NA 1 27 20 Female Right Morning B 2019-01-21 13:43:02 9 2001 -1 0 un NA 1
ettasi NA NA NA NA NA NA NA NA NA NA NA NA NA NA NA NA 1 14 22 Female Right Morning A 2018-11-12 13:44:47 9 976 2 0 un NA 1
fidessa NA NA NA NA NA NA NA NA NA NA NA NA NA NA NA NA 1 4 22 Male Right Morning A 2018-09-19 13:50:24 9 1301 2 0 un NA 1
iettro NA NA NA NA NA NA NA NA NA NA NA NA NA NA NA NA 1 17 24 Male Right Morning B 2018-11-15 14:10:31 9 1325 2 0 un NA 1
iticomi NA NA NA NA NA NA NA NA NA NA NA NA NA NA NA NA 1 3 25 Female Right Morning B 2018-09-19 09:54:40 9 1850 1 1 un NA 1
mascuge NA NA NA NA NA NA NA NA NA NA NA NA NA NA NA NA 1 16 24 Male Right Morning A 2018-11-15 10:03:56 9 1091 2 0 un NA 1
cidezo NA NA NA NA NA NA NA NA NA NA NA NA NA NA NA NA 1 20 32 Female Right Morning A 2018-12-03 13:26:00 9 1024 2 0 un NA 1
nonosla NA NA NA NA NA NA NA NA NA NA NA NA NA NA NA NA 1 8 24 Female Right Morning A 2018-10-16 13:48:31 9 1306 1 1 un NA 1
pispero NA NA NA NA NA NA NA NA NA NA NA NA NA NA NA NA 1 7 21 Male Right Morning B 2018-10-08 13:50:59 9 638 2 0 un NA 1
bandicci 22033 B NA NA NA NA NA NA NA 6.9 1.9 1 8 NA NA no 1 7 21 Male Right Morning B 2018-10-08 13:50:59 10 902 2 1 un novelword 1
bisconto 11010 A biscotto 1 3.810538236 8 6.86 1.95 1 6.95 1.9 1 8 final 1 yes 1 26 27 Female Right Morning A 2019-01-21 10:01:44 10 1272 1 0 un novelword 1
corazia 11015 A corazza 1 3.112609706 7 6.85 1.9 1 6.95 1.9 1 7 final 1 yes 1 14 22 Female Right Morning A 2018-11-12 13:44:47 10 1162 1 0 un novelword 1
ettodria 12036 A NA NA NA NA NA NA NA 6.9 2.85 2 8 NA NA no 1 16 24 Male Right Morning A 2018-11-15 10:03:56 10 1614 2 1 un novelword 1
favange 21015 B falange 1 2.533345911 7 6.86 1.85 1 6.76 2.15 1 7 middle 1 yes 1 1 28 Male Right Morning B 2018-09-04 10:04:35 10 581 2 1 un novelword 3
inguilla 11005 A anguilla 1 3.016998033 8 6.79 2.1 1 6.77 2.4 1 8 initial 1 yes 1 22 25 Male Right Morning A 2019-01-08 10:00:13 10 1110 2 1 un novelword 1
menpola 21021 B mensola 1 3.085792887 7 6.85 1.95 1 6.74 1.9 1 7 middle 1 yes 1 27 20 Female Right Morning B 2019-01-21 13:43:02 10 1366 2 1 un novelword 2
menpola 21021 B mensola 1 3.085792887 7 6.85 1.95 1 6.74 1.9 1 7 middle 1 yes 1 3 25 Female Right Morning B 2018-09-19 09:54:40 10 910 2 1 un novelword 1
alcome NA NA NA NA NA NA NA NA NA NA NA NA NA NA NA NA 1 11 25 Male Right Morning B 2018-11-02 13:41:00 10 1103 1 1 un NA 1
diample NA NA NA NA NA NA NA NA NA NA NA NA NA NA NA NA 1 8 24 Female Right Morning A 2018-10-16 13:48:31 10 1137 1 1 un NA 1
durice NA NA NA NA NA NA NA NA NA NA NA NA NA NA NA NA 1 23 32 Female Right Morning B 2019-01-08 13:42:19 10 794 1 1 un NA 1
sburtra NA NA NA NA NA NA NA NA NA NA NA NA NA NA NA NA 1 20 32 Female Right Morning A 2018-12-03 13:26:00 10 1270 2 0 un NA 1
tuainche NA NA NA NA NA NA NA NA NA NA NA NA NA NA NA NA 1 4 22 Male Right Morning A 2018-09-19 13:50:24 10 2001 -1 0 un NA 1
tappenia NA NA NA NA NA NA NA NA NA NA NA NA NA NA NA NA 1 17 24 Male Right Morning B 2018-11-15 14:10:31 10 1026 2 0 un NA 1
augubio 21004 B augurio 1 2.942971678 7 6.68 1.85 1 6.41 2.7 1 7 middle 1 yes 1 23 32 Female Right Morning B 2019-01-08 13:42:19 11 857 1 0 un novelword 1
cafugno 22036 B NA NA NA NA NA NA NA 6.56 2.75 2 7 NA NA no 1 11 25 Male Right Morning B 2018-11-02 13:41:00 11 773 2 1 un novelword 1
cortario 22037 B NA NA NA NA NA NA NA 7.03 1.85 1 8 NA NA no 1 7 21 Male Right Morning B 2018-10-08 13:50:59 11 767 1 0 un novelword 1
forzica 11018 A formica 2 3.390952497 7 6.82 1.85 1 6.76 1.9 1 7 middle 1 yes 1 8 24 Female Right Morning A 2018-10-16 13:48:31 11 1701 2 1 un novelword 1
menpola 21021 B mensola 1 3.085792887 7 6.85 1.95 1 6.74 1.9 1 7 middle 1 yes 1 1 28 Male Right Morning B 2018-09-04 10:04:35 11 904 1 0 un novelword 1
nicopina 11022 A nicotina 1 3.149964622 8 6.96 2.45 1 6.9 2.6 1 8 middle 1 yes 1 26 27 Female Right Morning A 2019-01-21 10:01:44 11 1561 2 1 un novelword 1
omnesia 11002 A amnesia 1 3.488683741 7 6.9 1.85 1 6.87 2.15 1 7 initial 1 yes 1 22 25 Male Right Morning A 2019-01-08 10:00:13 11 1203 2 1 un novelword 2
osbrica 11023 A ostrica 0 2.942971678 7 6.98 1.95 1 6.86 2.2 1 7 middle 1 yes 1 14 22 Female Right Morning A 2018-11-12 13:44:47 11 1802 2 1 un novelword 2
picastro 21024 B pilastro 1 3.104737082 8 6.87 2.35 1 6.9 2.05 1 8 middle 1 yes 1 17 24 Male Right Morning B 2018-11-15 14:10:31 11 1101 2 1 un novelword 1
spriage 22047 B NA NA NA NA NA NA NA 6.84 2 2 7 NA NA no 1 27 20 Female Right Morning B 2019-01-21 13:43:02 11 1920 2 1 un novelword 1
obranide NA NA NA NA NA NA NA NA NA NA NA NA NA NA NA NA 1 3 25 Female Right Morning B 2018-09-19 09:54:40 11 1572 1 1 un NA 1
piuniedi NA NA NA NA NA NA NA NA NA NA NA NA NA NA NA NA 1 4 22 Male Right Morning A 2018-09-19 13:50:24 11 1491 2 0 un NA 1
tondra NA NA NA NA NA NA NA NA NA NA NA NA NA NA NA NA 1 20 32 Female Right Morning A 2018-12-03 13:26:00 11 1364 2 0 un NA 1
succerro NA NA NA NA NA NA NA NA NA NA NA NA NA NA NA NA 1 16 24 Male Right Morning A 2018-11-15 10:03:56 11 1257 2 0 un NA 1
augubio 21004 B augurio 1 2.942971678 7 6.68 1.85 1 6.41 2.7 1 7 middle 1 yes 1 11 25 Male Right Morning B 2018-11-02 13:41:00 12 1235 2 1 un novelword 1
buscio 11020 A guscio 1 3.558279151 6 6.7 1.8 1 6.69 1.75 1 6 initial 1 yes 1 8 24 Female Right Morning A 2018-10-16 13:48:31 12 877 2 1 un novelword 1
catalle 12035 A NA NA NA NA NA NA NA 6.98 1.95 1 7 NA NA no 1 26 27 Female Right Morning A 2019-01-21 10:01:44 12 644 1 0 un novelword 1
descovo 21030 B vescovo 1 3.754404315 7 6.78 1.95 1 6.8 1.95 1 7 initial 1 yes 1 17 24 Male Right Morning B 2018-11-15 14:10:31 12 1159 2 1 un novelword 1
melirio 21011 B delirio 1 3.441343232 7 6.92 1.85 1 6.92 1.95 1 7 initial 1 yes 1 1 28 Male Right Morning B 2018-09-04 10:04:35 12 812 2 1 un novelword 1
omnesia 11002 A amnesia 1 3.488683741 7 6.9 1.85 1 6.87 2.15 1 7 initial 1 yes 1 22 25 Male Right Morning A 2019-01-08 10:00:13 12 897 2 1 un novelword 3
barsime NA NA NA NA NA NA NA NA NA NA NA NA NA NA NA NA 1 23 32 Female Right Morning B 2019-01-08 13:42:19 12 964 2 0 un NA 1
benado NA NA NA NA NA NA NA NA NA NA NA NA NA NA NA NA 1 27 20 Female Right Morning B 2019-01-21 13:43:02 12 1858 1 1 un NA 1
combodi NA NA NA NA NA NA NA NA NA NA NA NA NA NA NA NA 1 3 25 Female Right Morning B 2018-09-19 09:54:40 12 1065 2 0 un NA 1
futirte NA NA NA NA NA NA NA NA NA NA NA NA NA NA NA NA 1 7 21 Male Right Morning B 2018-10-08 13:50:59 12 1043 2 0 un NA 1
iettro NA NA NA NA NA NA NA NA NA NA NA NA NA NA NA NA 1 4 22 Male Right Morning A 2018-09-19 13:50:24 12 1998 2 0 un NA 1
malludi NA NA NA NA NA NA NA NA NA NA NA NA NA NA NA NA 1 16 24 Male Right Morning A 2018-11-15 10:03:56 12 949 2 0 un NA 1
scureve NA NA NA NA NA NA NA NA NA NA NA NA NA NA NA NA 1 14 22 Female Right Morning A 2018-11-12 13:44:47 12 1729 1 1 un NA 1
anchie NA NA NA NA NA NA NA NA NA NA NA NA NA NA NA NA 1 20 32 Female Right Morning A 2018-12-03 13:26:00 12 2001 -1 0 un NA 1
buscio 11020 A guscio 1 3.558279151 6 6.7 1.8 1 6.69 1.75 1 6 initial 1 yes 1 8 24 Female Right Morning A 2018-10-16 13:48:31 13 536 2 1 un novelword 2
dofile 21012 B docile 1 2.965440196 6 6.79 1.85 1 6.67 1.95 1 6 middle 1 yes 1 27 20 Female Right Morning B 2019-01-21 13:43:02 13 1269 2 1 un novelword 2
menpola 21021 B mensola 1 3.085792887 7 6.85 1.95 1 6.74 1.9 1 7 middle 1 yes 1 3 25 Female Right Morning B 2018-09-19 09:54:40 13 2001 -1 0 un novelword 2
spriage 22047 B NA NA NA NA NA NA NA 6.84 2 2 7 NA NA no 1 17 24 Male Right Morning B 2018-11-15 14:10:31 13 744 1 0 un novelword 2
vimitodi 22050 B NA NA NA NA NA NA NA 6.78 2.8 2 8 NA NA no 1 23 32 Female Right Morning B 2019-01-08 13:42:19 13 1473 1 0 un novelword 2
boammice NA NA NA NA NA NA NA NA NA NA NA NA NA NA NA NA 1 14 22 Female Right Morning A 2018-11-12 13:44:47 13 1188 2 0 un NA 1
nembila NA NA NA NA NA NA NA NA NA NA NA NA NA NA NA NA 1 20 32 Female Right Morning A 2018-12-03 13:26:00 13 1304 2 0 un NA 1
orglio NA NA NA NA NA NA NA NA NA NA NA NA NA NA NA NA 1 4 22 Male Right Morning A 2018-09-19 13:50:24 13 1539 2 0 un NA 1
ossendo NA NA NA NA NA NA NA NA NA NA NA NA NA NA NA NA 1 11 25 Male Right Morning B 2018-11-02 13:41:00 13 1528 2 0 un NA 1
prisso NA NA NA NA NA NA NA NA NA NA NA NA NA NA NA NA 1 1 28 Male Right Morning B 2018-09-04 10:04:35 13 709 1 1 un NA 1
spisto NA NA NA NA NA NA NA NA NA NA NA NA NA NA NA NA 1 16 24 Male Right Morning A 2018-11-15 10:03:56 13 1699 2 0 un NA 1
tomensa NA NA NA NA NA NA NA NA NA NA NA NA NA NA NA NA 1 22 25 Male Right Morning A 2019-01-08 10:00:13 13 2001 -1 0 un NA 1
paziti NA NA NA NA NA NA NA NA NA NA NA NA NA NA NA NA 1 26 27 Female Right Morning A 2019-01-21 10:01:44 13 915 1 1 un NA 1
segete NA NA NA NA NA NA NA NA NA NA NA NA NA NA NA NA 1 7 21 Male Right Morning B 2018-10-08 13:50:59 13 620 2 0 un NA 1
augubio 21004 B augurio 1 2.942971678 7 6.68 1.85 1 6.41 2.7 1 7 middle 1 yes 1 23 32 Female Right Morning B 2019-01-08 13:42:19 14 1111 2 1 un novelword 2
cortario 22037 B NA NA NA NA NA NA NA 7.03 1.85 1 8 NA NA no 1 1 28 Male Right Morning B 2018-09-04 10:04:35 14 720 1 0 un novelword 1
descovo 21030 B vescovo 1 3.754404315 7 6.78 1.95 1 6.8 1.95 1 7 initial 1 yes 1 11 25 Male Right Morning B 2018-11-02 13:41:00 14 1125 2 1 un novelword 1
fomirto 12038 A NA NA NA NA NA NA NA 6.73 2.45 2 7 NA NA no 1 26 27 Female Right Morning A 2019-01-21 10:01:44 14 1573 1 0 un novelword 1
fordora 11017 A forfora 0 2.502677091 7 6.83 2.25 1 6.88 1.95 1 7 middle 1 yes 1 4 22 Male Right Morning A 2018-09-19 13:50:24 14 1784 1 0 un novelword 1
forzica 11018 A formica 2 3.390952497 7 6.82 1.85 1 6.76 1.9 1 7 middle 1 yes 1 14 22 Female Right Morning A 2018-11-12 13:44:47 14 1462 1 0 un novelword 1
forzica 11018 A formica 2 3.390952497 7 6.82 1.85 1 6.76 1.9 1 7 middle 1 yes 1 8 24 Female Right Morning A 2018-10-16 13:48:31 14 462 2 1 un novelword 2
pieppo 11025 A pioppo 1 2.458094958 6 6.61 1.95 1 6.54 1.9 1 6 middle 1 yes 1 16 24 Male Right Morning A 2018-11-15 10:03:56 14 1065 2 1 un novelword 1
dimanze NA NA NA NA NA NA NA NA NA NA NA NA NA NA NA NA 1 17 24 Male Right Morning B 2018-11-15 14:10:31 14 815 1 1 un NA 1
iesbonve NA NA NA NA NA NA NA NA NA NA NA NA NA NA NA NA 1 7 21 Male Right Morning B 2018-10-08 13:50:59 14 603 1 1 un NA 1
narmento NA NA NA NA NA NA NA NA NA NA NA NA NA NA NA NA 1 22 25 Male Right Morning A 2019-01-08 10:00:13 14 2001 -1 0 un NA 1
ommorari NA NA NA NA NA NA NA NA NA NA NA NA NA NA NA NA 1 3 25 Female Right Morning B 2018-09-19 09:54:40 14 847 1 1 un NA 1
osalei NA NA NA NA NA NA NA NA NA NA NA NA NA NA NA NA 1 20 32 Female Right Morning A 2018-12-03 13:26:00 14 840 2 0 un NA 1
anchie NA NA NA NA NA NA NA NA NA NA NA NA NA NA NA NA 1 27 20 Female Right Morning B 2019-01-21 13:43:02 14 1957 1 1 un NA 1
anguato 21001 B agguato 1 3.494119287 7 6.76 1.9 1 6.91 1.75 1 7 initial 1 yes 1 3 25 Female Right Morning B 2018-09-19 09:54:40 15 1449 2 1 un novelword 1
catalle 12035 A NA NA NA NA NA NA NA 6.98 1.95 1 7 NA NA no 1 26 27 Female Right Morning A 2019-01-21 10:01:44 15 700 2 1 un novelword 2
ciaffo 11012 A ciuffo 1 2.954351224 6 6.41 1.9 1 6.72 1.95 1 6 middle 1 yes 1 4 22 Male Right Morning A 2018-09-19 13:50:24 15 1021 2 1 un novelword 1
forzica 11018 A formica 2 3.390952497 7 6.82 1.85 1 6.76 1.9 1 7 middle 1 yes 1 14 22 Female Right Morning A 2018-11-12 13:44:47 15 1945 2 1 un novelword 2
spitana 12047 A NA NA NA NA NA NA NA 6.93 1.95 1 7 NA NA no 1 20 32 Female Right Morning A 2018-12-03 13:26:00 15 679 2 1 un novelword 1
beiare NA NA NA NA NA NA NA NA NA NA NA NA NA NA NA NA 1 17 24 Male Right Morning B 2018-11-15 14:10:31 15 1551 2 0 un NA 1
frodio NA NA NA NA NA NA NA NA NA NA NA NA NA NA NA NA 1 8 24 Female Right Morning A 2018-10-16 13:48:31 15 1213 2 0 un NA 1
ifrebro NA NA NA NA NA NA NA NA NA NA NA NA NA NA NA NA 1 16 24 Male Right Morning A 2018-11-15 10:03:56 15 1595 2 0 un NA 1
itorsbe NA NA NA NA NA NA NA NA NA NA NA NA NA NA NA NA 1 7 21 Male Right Morning B 2018-10-08 13:50:59 15 812 1 1 un NA 1
morralvo NA NA NA NA NA NA NA NA NA NA NA NA NA NA NA NA 1 1 28 Male Right Morning B 2018-09-04 10:04:35 15 1072 1 1 un NA 1
ommorari NA NA NA NA NA NA NA NA NA NA NA NA NA NA NA NA 1 27 20 Female Right Morning B 2019-01-21 13:43:02 15 2001 -1 0 un NA 1
pafute NA NA NA NA NA NA NA NA NA NA NA NA NA NA NA NA 1 23 32 Female Right Morning B 2019-01-08 13:42:19 15 1228 1 1 un NA 1
pontab NA NA NA NA NA NA NA NA NA NA NA NA NA NA NA NA 1 11 25 Male Right Morning B 2018-11-02 13:41:00 15 827 1 1 un NA 1
crirri NA NA NA NA NA NA NA NA NA NA NA NA NA NA NA NA 1 22 25 Male Right Morning A 2019-01-08 10:00:13 15 2001 -1 0 un NA 1
descovo 21030 B vescovo 1 3.754404315 7 6.78 1.95 1 6.8 1.95 1 7 initial 1 yes 1 11 25 Male Right Morning B 2018-11-02 13:41:00 16 800 2 1 un novelword 2
enalogia 21002 B analogia 1 3.010467166 8 6.93 2.05 1 6.9 2.15 1 8 initial 1 yes 1 27 20 Female Right Morning B 2019-01-21 13:43:02 16 2001 -1 0 un novelword 1
inguilla 11005 A anguilla 1 3.016998033 8 6.79 2.1 1 6.77 2.4 1 8 initial 1 yes 1 16 24 Male Right Morning A 2018-11-15 10:03:56 16 1784 2 1 un novelword 2
nicopina 11022 A nicotina 1 3.149964622 8 6.96 2.45 1 6.9 2.6 1 8 middle 1 yes 1 14 22 Female Right Morning A 2018-11-12 13:44:47 16 1643 2 1 un novelword 1
pievra 21025 B piovra 1 2.764954498 6 6.75 1.85 1 6.72 1.8 1 6 middle 1 yes 1 7 21 Male Right Morning B 2018-10-08 13:50:59 16 646 2 1 un novelword 2
sentesto 12046 A NA NA NA NA NA NA NA 7.01 2 2 8 NA NA no 1 20 32 Female Right Morning A 2018-12-03 13:26:00 16 1800 2 1 un novelword 1
allasta NA NA NA NA NA NA NA NA NA NA NA NA NA NA NA NA 1 4 22 Male Right Morning A 2018-09-19 13:50:24 16 1229 2 0 un NA 1
glicami NA NA NA NA NA NA NA NA NA NA NA NA NA NA NA NA 1 3 25 Female Right Morning B 2018-09-19 09:54:40 16 1661 2 0 un NA 1
ichisi NA NA NA NA NA NA NA NA NA NA NA NA NA NA NA NA 1 26 27 Female Right Morning A 2019-01-21 10:01:44 16 639 1 1 un NA 1
invimmi NA NA NA NA NA NA NA NA NA NA NA NA NA NA NA NA 1 8 24 Female Right Morning A 2018-10-16 13:48:31 16 1728 1 1 un NA 1
nonosu NA NA NA NA NA NA NA NA NA NA NA NA NA NA NA NA 1 22 25 Male Right Morning A 2019-01-08 10:00:13 16 2001 -1 0 un NA 1
scrivra NA NA NA NA NA NA NA NA NA NA NA NA NA NA NA NA 1 1 28 Male Right Morning B 2018-09-04 10:04:35 16 883 1 1 un NA 1
segete NA NA NA NA NA NA NA NA NA NA NA NA NA NA NA NA 1 17 24 Male Right Morning B 2018-11-15 14:10:31 16 817 2 0 un NA 1
noscre NA NA NA NA NA NA NA NA NA NA NA NA NA NA NA NA 1 23 32 Female Right Morning B 2019-01-08 13:42:19 16 803 2 0 un NA 1
descovo 21030 B vescovo 1 3.754404315 7 6.78 1.95 1 6.8 1.95 1 7 initial 1 yes 1 3 25 Female Right Morning B 2018-09-19 09:54:40 17 1388 1 0 un novelword 1
mefinga 11021 A meringa 1 2.668044485 7 7.02 1.95 1 6.73 2.4 1 7 middle 1 yes 1 20 32 Female Right Morning A 2018-12-03 13:26:00 17 1657 2 1 un novelword 1
menpola 21021 B mensola 1 3.085792887 7 6.85 1.95 1 6.74 1.9 1 7 middle 1 yes 1 1 28 Male Right Morning B 2018-09-04 10:04:35 17 995 2 1 un novelword 2
spitana 12047 A NA NA NA NA NA NA NA 6.93 1.95 1 7 NA NA no 1 16 24 Male Right Morning A 2018-11-15 10:03:56 17 1389 2 1 un novelword 2
atildo NA NA NA NA NA NA NA NA NA NA NA NA NA NA NA NA 1 26 27 Female Right Morning A 2019-01-21 10:01:44 17 820 2 0 un NA 1
cherci NA NA NA NA NA NA NA NA NA NA NA NA NA NA NA NA 1 8 24 Female Right Morning A 2018-10-16 13:48:31 17 1700 2 0 un NA 1
lorgato NA NA NA NA NA NA NA NA NA NA NA NA NA NA NA NA 1 7 21 Male Right Morning B 2018-10-08 13:50:59 17 1166 1 1 un NA 1
morralvo NA NA NA NA NA NA NA NA NA NA NA NA NA NA NA NA 1 17 24 Male Right Morning B 2018-11-15 14:10:31 17 1091 1 1 un NA 1
nevacco NA NA NA NA NA NA NA NA NA NA NA NA NA NA NA NA 1 22 25 Male Right Morning A 2019-01-08 10:00:13 17 1875 2 0 un NA 1
reociso NA NA NA NA NA NA NA NA NA NA NA NA NA NA NA NA 1 23 32 Female Right Morning B 2019-01-08 13:42:19 17 860 2 0 un NA 1
sarcapia NA NA NA NA NA NA NA NA NA NA NA NA NA NA NA NA 1 14 22 Female Right Morning A 2018-11-12 13:44:47 17 1313 2 0 un NA 1
iamocca NA NA NA NA NA NA NA NA NA NA NA NA NA NA NA NA 1 4 22 Male Right Morning A 2018-09-19 13:50:24 17 2001 -1 0 un NA 1
uccezio NA NA NA NA NA NA NA NA NA NA NA NA NA NA NA NA 1 27 20 Female Right Morning B 2019-01-21 13:43:02 17 1702 2 0 un NA 1
propra NA NA NA NA NA NA NA NA NA NA NA NA NA NA NA NA 1 11 25 Male Right Morning B 2018-11-02 13:41:00 17 1619 2 0 un NA 1
catalle 12035 A NA NA NA NA NA NA NA 6.98 1.95 1 7 NA NA no 1 16 24 Male Right Morning A 2018-11-15 10:03:56 18 1655 1 0 un novelword 1
ospigio 21023 B ospizio 1 3.444987683 7 6.66 2.2 1 6.7 2.4 1 7 final 1 yes 1 11 25 Male Right Morning B 2018-11-02 13:41:00 18 809 2 1 un novelword 2
pievra 21025 B piovra 1 2.764954498 6 6.75 1.85 1 6.72 1.8 1 6 middle 1 yes 1 3 25 Female Right Morning B 2018-09-19 09:54:40 18 1226 2 1 un novelword 1
sentesto 12046 A NA NA NA NA NA NA NA 7.01 2 2 8 NA NA no 1 8 24 Female Right Morning A 2018-10-16 13:48:31 18 1147 2 1 un novelword 2
chiffure NA NA NA NA NA NA NA NA NA NA NA NA NA NA NA NA 1 14 22 Female Right Morning A 2018-11-12 13:44:47 18 2001 -1 0 un NA 1
creparlo NA NA NA NA NA NA NA NA NA NA NA NA NA NA NA NA 1 23 32 Female Right Morning B 2019-01-08 13:42:19 18 1274 2 0 un NA 1
fatanvo NA NA NA NA NA NA NA NA NA NA NA NA NA NA NA NA 1 1 28 Male Right Morning B 2018-09-04 10:04:35 18 1213 1 1 un NA 1
gabbre NA NA NA NA NA NA NA NA NA NA NA NA NA NA NA NA 1 4 22 Male Right Morning A 2018-09-19 13:50:24 18 1492 1 1 un NA 1
irirapie NA NA NA NA NA NA NA NA NA NA NA NA NA NA NA NA 1 27 20 Female Right Morning B 2019-01-21 13:43:02 18 1642 2 0 un NA 1
perandre NA NA NA NA NA NA NA NA NA NA NA NA NA NA NA NA 1 22 25 Male Right Morning A 2019-01-08 10:00:13 18 2001 -1 0 un NA 1
rebbiaco NA NA NA NA NA NA NA NA NA NA NA NA NA NA NA NA 1 17 24 Male Right Morning B 2018-11-15 14:10:31 18 1001 1 1 un NA 1
sevizza NA NA NA NA NA NA NA NA NA NA NA NA NA NA NA NA 1 26 27 Female Right Morning A 2019-01-21 10:01:44 18 674 1 1 un NA 1
raccolo NA NA NA NA NA NA NA NA NA NA NA NA NA NA NA NA 1 20 32 Female Right Morning A 2018-12-03 13:26:00 18 1232 1 1 un NA 1
siglisci NA NA NA NA NA NA NA NA NA NA NA NA NA NA NA NA 1 7 21 Male Right Morning B 2018-10-08 13:50:59 18 745 2 0 un NA 1
inguilla 11005 A anguilla 1 3.016998033 8 6.79 2.1 1 6.77 2.4 1 8 initial 1 yes 1 26 27 Female Right Morning A 2019-01-21 10:01:44 19 1021 2 1 un novelword 1
melirio 21011 B delirio 1 3.441343232 7 6.92 1.85 1 6.92 1.95 1 7 initial 1 yes 1 17 24 Male Right Morning B 2018-11-15 14:10:31 19 711 2 1 un novelword 1
tullordi 12050 A NA NA NA NA NA NA NA 6.71 3 3 8 NA NA no 1 22 25 Male Right Morning A 2019-01-08 10:00:13 19 1939 2 0 un novelword 2
vimitodi 22050 B NA NA NA NA NA NA NA 6.78 2.8 2 8 NA NA no 1 23 32 Female Right Morning B 2019-01-08 13:42:19 19 801 2 1 un novelword 3
alcossie NA NA NA NA NA NA NA NA NA NA NA NA NA NA NA NA 1 1 28 Male Right Morning B 2018-09-04 10:04:35 19 727 1 1 un NA 1
amorce NA NA NA NA NA NA NA NA NA NA NA NA NA NA NA NA 1 16 24 Male Right Morning A 2018-11-15 10:03:56 19 1910 1 1 un NA 1
arselte NA NA NA NA NA NA NA NA NA NA NA NA NA NA NA NA 1 3 25 Female Right Morning B 2018-09-19 09:54:40 19 875 2 0 un NA 1
enonfe NA NA NA NA NA NA NA NA NA NA NA NA NA NA NA NA 1 14 22 Female Right Morning A 2018-11-12 13:44:47 19 1604 1 1 un NA 1
fiacce NA NA NA NA NA NA NA NA NA NA NA NA NA NA NA NA 1 27 20 Female Right Morning B 2019-01-21 13:43:02 19 2001 -1 0 un NA 1
ostace NA NA NA NA NA NA NA NA NA NA NA NA NA NA NA NA 1 7 21 Male Right Morning B 2018-10-08 13:50:59 19 700 2 0 un NA 1
ticossi NA NA NA NA NA NA NA NA NA NA NA NA NA NA NA NA 1 20 32 Female Right Morning A 2018-12-03 13:26:00 19 2001 -1 0 un NA 1
bimate NA NA NA NA NA NA NA NA NA NA NA NA NA NA NA NA 1 11 25 Male Right Morning B 2018-11-02 13:41:00 19 839 1 1 un NA 1
iamocca NA NA NA NA NA NA NA NA NA NA NA NA NA NA NA NA 1 8 24 Female Right Morning A 2018-10-16 13:48:31 19 1424 1 1 un NA 1
timocre NA NA NA NA NA NA NA NA NA NA NA NA NA NA NA NA 1 4 22 Male Right Morning A 2018-09-19 13:50:24 19 2001 -1 0 un NA 1
ascuccio 11009 A astuccio 0 2.653321228 8 6.78 1.95 1 6.73 2.2 1 8 middle 1 yes 1 14 22 Female Right Morning A 2018-11-12 13:44:47 20 1531 2 1 un novelword 1
augubio 21004 B augurio 1 2.942971678 7 6.68 1.85 1 6.41 2.7 1 7 middle 1 yes 1 17 24 Male Right Morning B 2018-11-15 14:10:31 20 918 1 0 un novelword 2
collepio 11013 A collegio 1 3.686467568 8 6.82 1.75 1 6.81 2.1 1 8 final 1 yes 1 4 22 Male Right Morning A 2018-09-19 13:50:24 20 801 2 1 un novelword 3
edicota 21013 B edicola 1 3.000482945 7 6.89 2 1 6.9 2.3 1 7 final 1 yes 1 1 28 Male Right Morning B 2018-09-04 10:04:35 20 760 1 0 un novelword 1
fomirto 12038 A NA NA NA NA NA NA NA 6.73 2.45 2 7 NA NA no 1 26 27 Female Right Morning A 2019-01-21 10:01:44 20 885 1 0 un novelword 2
tariffu 21005 B tariffa 1 3.416232512 7 6.91 2.2 1 6.9 2.7 1 7 final 1 yes 1 23 32 Female Right Morning B 2019-01-08 13:42:19 20 1149 1 0 un novelword 1
ieggolio NA NA NA NA NA NA NA NA NA NA NA NA NA NA NA NA 1 3 25 Female Right Morning B 2018-09-19 09:54:40 20 2001 -1 0 un NA 1
licarce NA NA NA NA NA NA NA NA NA NA NA NA NA NA NA NA 1 7 21 Male Right Morning B 2018-10-08 13:50:59 20 727 2 0 un NA 1
pertome NA NA NA NA NA NA NA NA NA NA NA NA NA NA NA NA 1 16 24 Male Right Morning A 2018-11-15 10:03:56 20 1784 1 1 un NA 1
trandono NA NA NA NA NA NA NA NA NA NA NA NA NA NA NA NA 1 8 24 Female Right Morning A 2018-10-16 13:48:31 20 1366 2 0 un NA 1
trobbio NA NA NA NA NA NA NA NA NA NA NA NA NA NA NA NA 1 27 20 Female Right Morning B 2019-01-21 13:43:02 20 2001 -1 0 un NA 1
unfulte NA NA NA NA NA NA NA NA NA NA NA NA NA NA NA NA 1 11 25 Male Right Morning B 2018-11-02 13:41:00 20 1127 1 1 un NA 1
petiro NA NA NA NA NA NA NA NA NA NA NA NA NA NA NA NA 1 20 32 Female Right Morning A 2018-12-03 13:26:00 20 883 2 0 un NA 1
temanefu NA NA NA NA NA NA NA NA NA NA NA NA NA NA NA NA 1 22 25 Male Right Morning A 2019-01-08 10:00:13 20 2001 -1 0 un NA 1
amulero 11003 A amuleto 1 3.319645514 7 6.79 2 1 6.91 2.2 1 7 final 1 yes 1 26 27 Female Right Morning A 2019-01-21 10:01:44 21 1372 2 1 un novelword 2
aquigone 21003 B aquilone 1 3.201647095 8 6.72 2.55 1 6.64 2.8 1 8 middle 1 yes 1 7 21 Male Right Morning B 2018-10-08 13:50:59 21 882 2 1 un novelword 1
bregge 21018 B gregge 1 3.392320354 6 6.71 1.85 1 6.7 1.9 1 6 initial 1 yes 1 27 20 Female Right Morning B 2019-01-21 13:43:02 21 2001 -1 0 un novelword 2
commegia 11014 A commedia 1 3.880232089 8 6.83 2.15 1 6.8 2.45 1 8 middle 1 yes 1 22 25 Male Right Morning A 2019-01-08 10:00:13 21 586 2 1 un novelword 2
difupo 11016 A dirupo 1 2.894214608 6 6.57 1.95 1 6.46 2.05 1 6 middle 1 yes 1 16 24 Male Right Morning A 2018-11-15 10:03:56 21 1475 2 1 un novelword 1
gadodo 12041 A NA NA NA NA NA NA NA 6.61 2 2 6 NA NA no 1 4 22 Male Right Morning A 2018-09-19 13:50:24 21 1626 2 1 un novelword 1
ascida NA NA NA NA NA NA NA NA NA NA NA NA NA NA NA NA 1 11 25 Male Right Morning B 2018-11-02 13:41:00 21 902 2 0 un NA 1
frodio NA NA NA NA NA NA NA NA NA NA NA NA NA NA NA NA 1 23 32 Female Right Morning B 2019-01-08 13:42:19 21 811 2 0 un NA 1
igniero NA NA NA NA NA NA NA NA NA NA NA NA NA NA NA NA 1 3 25 Female Right Morning B 2018-09-19 09:54:40 21 520 2 0 un NA 1
olpiato NA NA NA NA NA NA NA NA NA NA NA NA NA NA NA NA 1 1 28 Male Right Morning B 2018-09-04 10:04:35 21 973 2 0 un NA 1
tranda NA NA NA NA NA NA NA NA NA NA NA NA NA NA NA NA 1 14 22 Female Right Morning A 2018-11-12 13:44:47 21 1604 1 1 un NA 1
ualidasa NA NA NA NA NA NA NA NA NA NA NA NA NA NA NA NA 1 8 24 Female Right Morning A 2018-10-16 13:48:31 21 1785 1 1 un NA 1
ornato NA NA NA NA NA NA NA NA NA NA NA NA NA NA NA NA 1 20 32 Female Right Morning A 2018-12-03 13:26:00 21 1603 2 0 un NA 1
omedelca NA NA NA NA NA NA NA NA NA NA NA NA NA NA NA NA 1 17 24 Male Right Morning B 2018-11-15 14:10:31 21 1165 2 0 un NA 1
bosigene 22034 B NA NA NA NA NA NA NA 6.8 2.85 2 8 NA NA no 1 7 21 Male Right Morning B 2018-10-08 13:50:59 22 1225 1 0 un novelword 1
mastenza 12043 A NA NA NA NA NA NA NA 6.9 2.25 2 8 NA NA no 1 8 24 Female Right Morning A 2018-10-16 13:48:31 22 860 2 1 un novelword 1
mastenza 12043 A NA NA NA NA NA NA NA 6.9 2.25 2 8 NA NA no 1 22 25 Male Right Morning A 2019-01-08 10:00:13 22 2001 -1 0 un novelword 1
spriage 22047 B NA NA NA NA NA NA NA 6.84 2 2 7 NA NA no 1 27 20 Female Right Morning B 2019-01-21 13:43:02 22 2001 -1 0 un novelword 2
agarlo NA NA NA NA NA NA NA NA NA NA NA NA NA NA NA NA 1 11 25 Male Right Morning B 2018-11-02 13:41:00 22 1342 2 0 un NA 1
agliasa NA NA NA NA NA NA NA NA NA NA NA NA NA NA NA NA 1 17 24 Male Right Morning B 2018-11-15 14:10:31 22 1026 1 1 un NA 1
bibiati NA NA NA NA NA NA NA NA NA NA NA NA NA NA NA NA 1 1 28 Male Right Morning B 2018-09-04 10:04:35 22 796 1 1 un NA 1
enonfe NA NA NA NA NA NA NA NA NA NA NA NA NA NA NA NA 1 3 25 Female Right Morning B 2018-09-19 09:54:40 22 1086 1 1 un NA 1
ereoppi NA NA NA NA NA NA NA NA NA NA NA NA NA NA NA NA 1 23 32 Female Right Morning B 2019-01-08 13:42:19 22 2001 -1 0 un NA 1
fuesieppo NA NA NA NA NA NA NA NA NA NA NA NA NA NA NA NA 1 26 27 Female Right Morning A 2019-01-21 10:01:44 22 904 1 1 un NA 1
gierdo NA NA NA NA NA NA NA NA NA NA NA NA NA NA NA NA 1 20 32 Female Right Morning A 2018-12-03 13:26:00 22 913 2 0 un NA 1
mascuge NA NA NA NA NA NA NA NA NA NA NA NA NA NA NA NA 1 4 22 Male Right Morning A 2018-09-19 13:50:24 22 2001 -1 0 un NA 1
semprin NA NA NA NA NA NA NA NA NA NA NA NA NA NA NA NA 1 16 24 Male Right Morning A 2018-11-15 10:03:56 22 1790 2 0 un NA 1
accide NA NA NA NA NA NA NA NA NA NA NA NA NA NA NA NA 1 14 22 Female Right Morning A 2018-11-12 13:44:47 22 1878 2 0 un NA 1
cortario 22037 B NA NA NA NA NA NA NA 7.03 1.85 1 8 NA NA no 1 27 20 Female Right Morning B 2019-01-21 13:43:02 23 1679 1 0 un novelword 1
enalogia 21002 B analogia 1 3.010467166 8 6.93 2.05 1 6.9 2.15 1 8 initial 1 yes 1 7 21 Male Right Morning B 2018-10-08 13:50:59 23 646 2 1 un novelword 1
fomirto 12038 A NA NA NA NA NA NA NA 6.73 2.45 2 7 NA NA no 1 14 22 Female Right Morning A 2018-11-12 13:44:47 23 1117 2 1 un novelword 3
gadodo 12041 A NA NA NA NA NA NA NA 6.61 2 2 6 NA NA no 1 20 32 Female Right Morning A 2018-12-03 13:26:00 23 947 2 1 un novelword 1
gateri 22043 B NA NA NA NA NA NA NA 7.12 1.95 1 6 NA NA no 1 3 25 Female Right Morning B 2018-09-19 09:54:40 23 1156 2 1 un novelword 1
tenopo 12049 A NA NA NA NA NA NA NA 6.92 2 2 6 NA NA no 1 8 24 Female Right Morning A 2018-10-16 13:48:31 23 1232 2 1 un novelword 1
alcore NA NA NA NA NA NA NA NA NA NA NA NA NA NA NA NA 1 11 25 Male Right Morning B 2018-11-02 13:41:00 23 904 2 0 un NA 1
emmonse NA NA NA NA NA NA NA NA NA NA NA NA NA NA NA NA 1 1 28 Male Right Morning B 2018-09-04 10:04:35 23 968 1 1 un NA 1
iattito NA NA NA NA NA NA NA NA NA NA NA NA NA NA NA NA 1 26 27 Female Right Morning A 2019-01-21 10:01:44 23 1272 1 1 un NA 1
prembe NA NA NA NA NA NA NA NA NA NA NA NA NA NA NA NA 1 22 25 Male Right Morning A 2019-01-08 10:00:13 23 1914 2 0 un NA 1
sezuio NA NA NA NA NA NA NA NA NA NA NA NA NA NA NA NA 1 4 22 Male Right Morning A 2018-09-19 13:50:24 23 1646 2 0 un NA 1
tensito NA NA NA NA NA NA NA NA NA NA NA NA NA NA NA NA 1 23 32 Female Right Morning B 2019-01-08 13:42:19 23 1207 2 0 un NA 1
accossu NA NA NA NA NA NA NA NA NA NA NA NA NA NA NA NA 1 17 24 Male Right Morning B 2018-11-15 14:10:31 23 1093 2 0 un NA 1
liscoia NA NA NA NA NA NA NA NA NA NA NA NA NA NA NA NA 1 16 24 Male Right Morning A 2018-11-15 10:03:56 23 1229 2 0 un NA 1
antensa 11007 A antenna 1 3.425187354 7 7.02 1.95 1 7.01 1.9 1 7 final 1 yes 1 8 24 Female Right Morning A 2018-10-16 13:48:31 24 841 2 1 un novelword 2
apostomo 11008 A apostolo 1 2.715968037 8 6.85 2 1 6.84 2.55 1 8 final 1 yes 1 14 22 Female Right Morning A 2018-11-12 13:44:47 24 1043 2 1 un novelword 1
bagate 22032 B NA NA NA NA NA NA NA 6.89 1.35 1 6 NA NA no 1 1 28 Male Right Morning B 2018-09-04 10:04:35 24 837 1 0 un novelword 1
ettodria 12036 A NA NA NA NA NA NA NA 6.9 2.85 2 8 NA NA no 1 16 24 Male Right Morning A 2018-11-15 10:03:56 24 1260 2 1 un novelword 2
fordora 11017 A forfora 0 2.502677091 7 6.83 2.25 1 6.88 1.95 1 7 middle 1 yes 1 22 25 Male Right Morning A 2019-01-08 10:00:13 24 2001 -1 0 un novelword 1
fordora 11017 A forfora 0 2.502677091 7 6.83 2.25 1 6.88 1.95 1 7 middle 1 yes 1 4 22 Male Right Morning A 2018-09-19 13:50:24 24 1417 2 1 un novelword 2
matodice 22044 B NA NA NA NA NA NA NA 6.9 2.5 2 8 NA NA no 1 27 20 Female Right Morning B 2019-01-21 13:43:02 24 1520 2 1 un novelword 1
auliso NA NA NA NA NA NA NA NA NA NA NA NA NA NA NA NA 1 17 24 Male Right Morning B 2018-11-15 14:10:31 24 996 1 1 un NA 1
avesta NA NA NA NA NA NA NA NA NA NA NA NA NA NA NA NA 1 3 25 Female Right Morning B 2018-09-19 09:54:40 24 1361 1 1 un NA 1
igindo NA NA NA NA NA NA NA NA NA NA NA NA NA NA NA NA 1 20 32 Female Right Morning A 2018-12-03 13:26:00 24 1363 2 0 un NA 1
oposso NA NA NA NA NA NA NA NA NA NA NA NA NA NA NA NA 1 7 21 Male Right Morning B 2018-10-08 13:50:59 24 645 1 1 un NA 1
ordanon NA NA NA NA NA NA NA NA NA NA NA NA NA NA NA NA 1 26 27 Female Right Morning A 2019-01-21 10:01:44 24 1008 1 1 un NA 1
ottalza NA NA NA NA NA NA NA NA NA NA NA NA NA NA NA NA 1 23 32 Female Right Morning B 2019-01-08 13:42:19 24 865 2 0 un NA 1
semprin NA NA NA NA NA NA NA NA NA NA NA NA NA NA NA NA 1 11 25 Male Right Morning B 2018-11-02 13:41:00 24 1587 1 1 un NA 1
ascuccio 11009 A astuccio 0 2.653321228 8 6.78 1.95 1 6.73 2.2 1 8 middle 1 yes 1 20 32 Female Right Morning A 2018-12-03 13:26:00 25 1214 2 1 un novelword 1
augubio 21004 B augurio 1 2.942971678 7 6.68 1.85 1 6.41 2.7 1 7 middle 1 yes 1 11 25 Male Right Morning B 2018-11-02 13:41:00 25 846 2 1 un novelword 2
bottefa 21006 B bottega 0 3.468532444 7 6.76 1.95 1 6.89 1.95 1 7 final 1 yes 1 3 25 Female Right Morning B 2018-09-19 09:54:40 25 2001 -1 0 un novelword 2
melirio 21011 B delirio 1 3.441343232 7 6.92 1.85 1 6.92 1.95 1 7 initial 1 yes 1 17 24 Male Right Morning B 2018-11-15 14:10:31 25 1786 1 0 un novelword 2
altarla NA NA NA NA NA NA NA NA NA NA NA NA NA NA NA NA 1 22 25 Male Right Morning A 2019-01-08 10:00:13 25 1769 2 0 un NA 1
andage NA NA NA NA NA NA NA NA NA NA NA NA NA NA NA NA 1 7 21 Male Right Morning B 2018-10-08 13:50:59 25 868 1 1 un NA 1
cosono NA NA NA NA NA NA NA NA NA NA NA NA NA NA NA NA 1 14 22 Female Right Morning A 2018-11-12 13:44:47 25 1631 1 1 un NA 1
diviche NA NA NA NA NA NA NA NA NA NA NA NA NA NA NA NA 1 26 27 Female Right Morning A 2019-01-21 10:01:44 25 2001 -1 0 un NA 1
fiogira NA NA NA NA NA NA NA NA NA NA NA NA NA NA NA NA 1 4 22 Male Right Morning A 2018-09-19 13:50:24 25 2001 -1 0 un NA 1
frutirie NA NA NA NA NA NA NA NA NA NA NA NA NA NA NA NA 1 27 20 Female Right Morning B 2019-01-21 13:43:02 25 1867 1 1 un NA 1
ganque NA NA NA NA NA NA NA NA NA NA NA NA NA NA NA NA 1 8 24 Female Right Morning A 2018-10-16 13:48:31 25 975 1 1 un NA 1
questai NA NA NA NA NA NA NA NA NA NA NA NA NA NA NA NA 1 1 28 Male Right Morning B 2018-09-04 10:04:35 25 865 1 1 un NA 1
tategua NA NA NA NA NA NA NA NA NA NA NA NA NA NA NA NA 1 23 32 Female Right Morning B 2019-01-08 13:42:19 25 2001 -1 0 un NA 1
cichiaia NA NA NA NA NA NA NA NA NA NA NA NA NA NA NA NA 1 16 24 Male Right Morning A 2018-11-15 10:03:56 25 1546 2 0 un NA 1
bandicci 22033 B NA NA NA NA NA NA NA 6.9 1.9 1 8 NA NA no 1 17 24 Male Right Morning B 2018-11-15 14:10:31 26 1526 1 0 un novelword 2
ciaffo 11012 A ciuffo 1 2.954351224 6 6.41 1.9 1 6.72 1.95 1 6 middle 1 yes 1 14 22 Female Right Morning A 2018-11-12 13:44:47 26 1047 2 1 un novelword 1
ettinita 22038 B NA NA NA NA NA NA NA 6.97 2.55 2 8 NA NA no 1 3 25 Female Right Morning B 2018-09-19 09:54:40 26 2001 -1 0 un novelword 1
facusta 22039 B NA NA NA NA NA NA NA 6.77 1.95 1 7 NA NA no 1 7 21 Male Right Morning B 2018-10-08 13:50:59 26 739 2 1 un novelword 1
nicopina 11022 A nicotina 1 3.149964622 8 6.96 2.45 1 6.9 2.6 1 8 middle 1 yes 1 20 32 Female Right Morning A 2018-12-03 13:26:00 26 1436 2 1 un novelword 1
omnesia 11002 A amnesia 1 3.488683741 7 6.9 1.85 1 6.87 2.15 1 7 initial 1 yes 1 26 27 Female Right Morning A 2019-01-21 10:01:44 26 808 1 0 un novelword 1
ospigio 21023 B ospizio 1 3.444987683 7 6.66 2.2 1 6.7 2.4 1 7 final 1 yes 1 1 28 Male Right Morning B 2018-09-04 10:04:35 26 676 2 1 un novelword 2
coronpo NA NA NA NA NA NA NA NA NA NA NA NA NA NA NA NA 1 4 22 Male Right Morning A 2018-09-19 13:50:24 26 2001 -1 0 un NA 1
ioccosso NA NA NA NA NA NA NA NA NA NA NA NA NA NA NA NA 1 11 25 Male Right Morning B 2018-11-02 13:41:00 26 1205 1 1 un NA 1
nonosu NA NA NA NA NA NA NA NA NA NA NA NA NA NA NA NA 1 23 32 Female Right Morning B 2019-01-08 13:42:19 26 603 1 1 un NA 1
ogenve NA NA NA NA NA NA NA NA NA NA NA NA NA NA NA NA 1 27 20 Female Right Morning B 2019-01-21 13:43:02 26 1927 2 0 un NA 1
recceppe NA NA NA NA NA NA NA NA NA NA NA NA NA NA NA NA 1 16 24 Male Right Morning A 2018-11-15 10:03:56 26 1138 2 0 un NA 1
tomensa NA NA NA NA NA NA NA NA NA NA NA NA NA NA NA NA 1 8 24 Female Right Morning A 2018-10-16 13:48:31 26 779 2 0 un NA 1
valniafe NA NA NA NA NA NA NA NA NA NA NA NA NA NA NA NA 1 22 25 Male Right Morning A 2019-01-08 10:00:13 26 2001 -1 0 un NA 1
apostomo 11008 A apostolo 1 2.715968037 8 6.85 2 1 6.84 2.55 1 8 final 1 yes 1 22 25 Male Right Morning A 2019-01-08 10:00:13 27 1163 2 1 un novelword 2
bisconto 11010 A biscotto 1 3.810538236 8 6.86 1.95 1 6.95 1.9 1 8 final 1 yes 1 26 27 Female Right Morning A 2019-01-21 10:01:44 27 1056 1 0 un novelword 2
catalle 12035 A NA NA NA NA NA NA NA 6.98 1.95 1 7 NA NA no 1 16 24 Male Right Morning A 2018-11-15 10:03:56 27 1277 2 1 un novelword 2
cortario 22037 B NA NA NA NA NA NA NA 7.03 1.85 1 8 NA NA no 1 11 25 Male Right Morning B 2018-11-02 13:41:00 27 1227 2 1 un novelword 2
gannolo 21007 B cannolo 1 2.689233784 7 6.91 1.95 1 6.86 1.95 1 7 initial 1 yes 1 3 25 Female Right Morning B 2018-09-19 09:54:40 27 1904 1 0 un novelword 1
gerilla 11019 A gorilla 1 3.749031532 7 6.89 1.85 1 6.98 1.8 1 7 initial 1 yes 1 4 22 Male Right Morning A 2018-09-19 13:50:24 27 1803 2 1 un novelword 1
melirio 21011 B delirio 1 3.441343232 7 6.92 1.85 1 6.92 1.95 1 7 initial 1 yes 1 23 32 Female Right Morning B 2019-01-08 13:42:19 27 656 2 1 un novelword 1
osbrica 11023 A ostrica 0 2.942971678 7 6.98 1.95 1 6.86 2.2 1 7 middle 1 yes 1 14 22 Female Right Morning A 2018-11-12 13:44:47 27 1133 2 1 un novelword 3
spitana 12047 A NA NA NA NA NA NA NA 6.93 1.95 1 7 NA NA no 1 8 24 Female Right Morning A 2018-10-16 13:48:31 27 808 2 1 un novelword 1
buorzio NA NA NA NA NA NA NA NA NA NA NA NA NA NA NA NA 1 1 28 Male Right Morning B 2018-09-04 10:04:35 27 762 1 1 un NA 1
glicami NA NA NA NA NA NA NA NA NA NA NA NA NA NA NA NA 1 27 20 Female Right Morning B 2019-01-21 13:43:02 27 2001 -1 0 un NA 1
rimfuo NA NA NA NA NA NA NA NA NA NA NA NA NA NA NA NA 1 17 24 Male Right Morning B 2018-11-15 14:10:31 27 1378 2 0 un NA 1
soglimo NA NA NA NA NA NA NA NA NA NA NA NA NA NA NA NA 1 7 21 Male Right Morning B 2018-10-08 13:50:59 27 567 2 0 un NA 1
tripro NA NA NA NA NA NA NA NA NA NA NA NA NA NA NA NA 1 20 32 Female Right Morning A 2018-12-03 13:26:00 27 1805 2 0 un NA 1
apostomo 11008 A apostolo 1 2.715968037 8 6.85 2 1 6.84 2.55 1 8 final 1 yes 1 14 22 Female Right Morning A 2018-11-12 13:44:47 28 1098 2 1 un novelword 2
aseddoto 11004 A aneddoto 1 3.010467166 8 6.85 2.65 1 6.75 2.8 1 8 initial 1 yes 1 22 25 Male Right Morning A 2019-01-08 10:00:13 28 831 2 1 un novelword 2
cortario 22037 B NA NA NA NA NA NA NA 7.03 1.85 1 8 NA NA no 1 1 28 Male Right Morning B 2018-09-04 10:04:35 28 994 2 1 un novelword 2
enalogia 21002 B analogia 1 3.010467166 8 6.93 2.05 1 6.9 2.15 1 8 initial 1 yes 1 7 21 Male Right Morning B 2018-10-08 13:50:59 28 716 2 1 un novelword 2
gadodo 12041 A NA NA NA NA NA NA NA 6.61 2 2 6 NA NA no 1 20 32 Female Right Morning A 2018-12-03 13:26:00 28 893 2 1 un novelword 2
nicopina 11022 A nicotina 1 3.149964622 8 6.96 2.45 1 6.9 2.6 1 8 middle 1 yes 1 26 27 Female Right Morning A 2019-01-21 10:01:44 28 1577 1 0 un novelword 2
scapippo 12045 A NA NA NA NA NA NA NA 6.65 2.75 2 8 NA NA no 1 4 22 Male Right Morning A 2018-09-19 13:50:24 28 2001 -1 0 un novelword 1
tulifano 21029 B tulipano 1 2.614169104 8 6.83 2.45 1 6.79 2.4 1 8 middle 1 yes 1 27 20 Female Right Morning B 2019-01-21 13:43:02 28 2001 -1 0 un novelword 1
amogio NA NA NA NA NA NA NA NA NA NA NA NA NA NA NA NA 1 23 32 Female Right Morning B 2019-01-08 13:42:19 28 814 2 0 un NA 1
frutirie NA NA NA NA NA NA NA NA NA NA NA NA NA NA NA NA 1 8 24 Female Right Morning A 2018-10-16 13:48:31 28 1478 1 1 un NA 1
laccuia NA NA NA NA NA NA NA NA NA NA NA NA NA NA NA NA 1 17 24 Male Right Morning B 2018-11-15 14:10:31 28 1579 1 1 un NA 1
licala NA NA NA NA NA NA NA NA NA NA NA NA NA NA NA NA 1 11 25 Male Right Morning B 2018-11-02 13:41:00 28 1903 1 1 un NA 1
ovvene NA NA NA NA NA NA NA NA NA NA NA NA NA NA NA NA 1 16 24 Male Right Morning A 2018-11-15 10:03:56 28 1077 2 0 un NA 1
prembe NA NA NA NA NA NA NA NA NA NA NA NA NA NA NA NA 1 3 25 Female Right Morning B 2018-09-19 09:54:40 28 1578 1 1 un NA 1
ascuccio 11009 A astuccio 0 2.653321228 8 6.78 1.95 1 6.73 2.2 1 8 middle 1 yes 1 14 22 Female Right Morning A 2018-11-12 13:44:47 29 1077 2 1 un novelword 2
difupo 11016 A dirupo 1 2.894214608 6 6.57 1.95 1 6.46 2.05 1 6 middle 1 yes 1 16 24 Male Right Morning A 2018-11-15 10:03:56 29 1616 2 1 un novelword 2
favange 21015 B falange 1 2.533345911 7 6.86 1.85 1 6.76 2.15 1 7 middle 1 yes 1 11 25 Male Right Morning B 2018-11-02 13:41:00 29 1178 2 1 un novelword 1
gadodo 12041 A NA NA NA NA NA NA NA 6.61 2 2 6 NA NA no 1 4 22 Male Right Morning A 2018-09-19 13:50:24 29 891 2 1 un novelword 2
gannolo 21007 B cannolo 1 2.689233784 7 6.91 1.95 1 6.86 1.95 1 7 initial 1 yes 1 17 24 Male Right Morning B 2018-11-15 14:10:31 29 2001 -1 0 un novelword 2
spitana 12047 A NA NA NA NA NA NA NA 6.93 1.95 1 7 NA NA no 1 8 24 Female Right Morning A 2018-10-16 13:48:31 29 1751 1 0 un novelword 2
andovere NA NA NA NA NA NA NA NA NA NA NA NA NA NA NA NA 1 7 21 Male Right Morning B 2018-10-08 13:50:59 29 1166 2 0 un NA 1
coronpo NA NA NA NA NA NA NA NA NA NA NA NA NA NA NA NA 1 20 32 Female Right Morning A 2018-12-03 13:26:00 29 1899 1 1 un NA 1
fuesieppo NA NA NA NA NA NA NA NA NA NA NA NA NA NA NA NA 1 22 25 Male Right Morning A 2019-01-08 10:00:13 29 2001 -1 0 un NA 1
mentro NA NA NA NA NA NA NA NA NA NA NA NA NA NA NA NA 1 26 27 Female Right Morning A 2019-01-21 10:01:44 29 339 2 0 un NA 1
occonto NA NA NA NA NA NA NA NA NA NA NA NA NA NA NA NA 1 27 20 Female Right Morning B 2019-01-21 13:43:02 29 2001 -1 0 un NA 1
scazio NA NA NA NA NA NA NA NA NA NA NA NA NA NA NA NA 1 1 28 Male Right Morning B 2018-09-04 10:04:35 29 806 1 1 un NA 1
trandono NA NA NA NA NA NA NA NA NA NA NA NA NA NA NA NA 1 23 32 Female Right Morning B 2019-01-08 13:42:19 29 1027 2 0 un NA 1
ensbire NA NA NA NA NA NA NA NA NA NA NA NA NA NA NA NA 1 3 25 Female Right Morning B 2018-09-19 09:54:40 29 1542 1 1 un NA 1
bregge 21018 B gregge 1 3.392320354 6 6.71 1.85 1 6.7 1.9 1 6 initial 1 yes 1 27 20 Female Right Morning B 2019-01-21 13:43:02 30 1220 2 1 un novelword 3
buscio 11020 A guscio 1 3.558279151 6 6.7 1.8 1 6.69 1.75 1 6 initial 1 yes 1 22 25 Male Right Morning A 2019-01-08 10:00:13 30 980 2 1 un novelword 2
ciaffo 11012 A ciuffo 1 2.954351224 6 6.41 1.9 1 6.72 1.95 1 6 middle 1 yes 1 4 22 Male Right Morning A 2018-09-19 13:50:24 30 1786 2 1 un novelword 2
ettinita 22038 B NA NA NA NA NA NA NA 6.97 2.55 2 8 NA NA no 1 3 25 Female Right Morning B 2018-09-19 09:54:40 30 1539 2 1 un novelword 2
omnesia 11002 A amnesia 1 3.488683741 7 6.9 1.85 1 6.87 2.15 1 7 initial 1 yes 1 26 27 Female Right Morning A 2019-01-21 10:01:44 30 1256 1 0 un novelword 2
ospigio 21023 B ospizio 1 3.444987683 7 6.66 2.2 1 6.7 2.4 1 7 final 1 yes 1 11 25 Male Right Morning B 2018-11-02 13:41:00 30 842 2 1 un novelword 3
suteni 22048 B NA NA NA NA NA NA NA 6.88 1.9 1 6 NA NA no 1 17 24 Male Right Morning B 2018-11-15 14:10:31 30 996 1 0 un novelword 1
tarogna 21008 B carogna 1 3.61986752 7 6.89 1.9 1 6.93 1.95 1 7 initial 1 yes 1 23 32 Female Right Morning B 2019-01-08 13:42:19 30 802 2 1 un novelword 1
babili NA NA NA NA NA NA NA NA NA NA NA NA NA NA NA NA 1 7 21 Male Right Morning B 2018-10-08 13:50:59 30 834 2 0 un NA 1
beggio NA NA NA NA NA NA NA NA NA NA NA NA NA NA NA NA 1 20 32 Female Right Morning A 2018-12-03 13:26:00 30 1435 1 1 un NA 1
gierdo NA NA NA NA NA NA NA NA NA NA NA NA NA NA NA NA 1 1 28 Male Right Morning B 2018-09-04 10:04:35 30 913 2 0 un NA 1
risbumi NA NA NA NA NA NA NA NA NA NA NA NA NA NA NA NA 1 8 24 Female Right Morning A 2018-10-16 13:48:31 30 1438 1 1 un NA 1
tensito NA NA NA NA NA NA NA NA NA NA NA NA NA NA NA NA 1 14 22 Female Right Morning A 2018-11-12 13:44:47 30 1089 2 0 un NA 1
irucce NA NA NA NA NA NA NA NA NA NA NA NA NA NA NA NA 1 16 24 Male Right Morning A 2018-11-15 10:03:56 30 1551 1 1 un NA 1
anguato 21001 B agguato 1 3.494119287 7 6.76 1.9 1 6.91 1.75 1 7 initial 1 yes 1 3 25 Female Right Morning B 2018-09-19 09:54:40 31 1621 2 1 un novelword 2
ascuccio 11009 A astuccio 0 2.653321228 8 6.78 1.95 1 6.73 2.2 1 8 middle 1 yes 1 20 32 Female Right Morning A 2018-12-03 13:26:00 31 575 2 1 un novelword 2
averuzzo 22031 B NA NA NA NA NA NA NA 6.7 3 3 8 NA NA no 1 23 32 Female Right Morning B 2019-01-08 13:42:19 31 716 2 1 un novelword 1
fastero 12037 A NA NA NA NA NA NA NA 7.03 1.95 1 7 NA NA no 1 4 22 Male Right Morning A 2018-09-19 13:50:24 31 1570 1 0 un novelword 1
melirio 21011 B delirio 1 3.441343232 7 6.92 1.85 1 6.92 1.95 1 7 initial 1 yes 1 1 28 Male Right Morning B 2018-09-04 10:04:35 31 707 2 1 un novelword 2
ardale NA NA NA NA NA NA NA NA NA NA NA NA NA NA NA NA 1 7 21 Male Right Morning B 2018-10-08 13:50:59 31 866 1 1 un NA 1
attima NA NA NA NA NA NA NA NA NA NA NA NA NA NA NA NA 1 11 25 Male Right Morning B 2018-11-02 13:41:00 31 1053 1 1 un NA 1
endalzo NA NA NA NA NA NA NA NA NA NA NA NA NA NA NA NA 1 17 24 Male Right Morning B 2018-11-15 14:10:31 31 935 1 1 un NA 1
fuinto NA NA NA NA NA NA NA NA NA NA NA NA NA NA NA NA 1 8 24 Female Right Morning A 2018-10-16 13:48:31 31 1083 2 0 un NA 1
giarta NA NA NA NA NA NA NA NA NA NA NA NA NA NA NA NA 1 27 20 Female Right Morning B 2019-01-21 13:43:02 31 1949 2 0 un NA 1
impide NA NA NA NA NA NA NA NA NA NA NA NA NA NA NA NA 1 26 27 Female Right Morning A 2019-01-21 10:01:44 31 929 1 1 un NA 1
iritapie NA NA NA NA NA NA NA NA NA NA NA NA NA NA NA NA 1 16 24 Male Right Morning A 2018-11-15 10:03:56 31 1503 1 1 un NA 1
oltarei NA NA NA NA NA NA NA NA NA NA NA NA NA NA NA NA 1 22 25 Male Right Morning A 2019-01-08 10:00:13 31 2001 -1 0 un NA 1
erebocri NA NA NA NA NA NA NA NA NA NA NA NA NA NA NA NA 1 14 22 Female Right Morning A 2018-11-12 13:44:47 31 2001 -1 0 un NA 1
bosigene 22034 B NA NA NA NA NA NA NA 6.8 2.85 2 8 NA NA no 1 7 21 Male Right Morning B 2018-10-08 13:50:59 32 1147 1 0 un novelword 2
bottefa 21006 B bottega 0 3.468532444 7 6.76 1.95 1 6.89 1.95 1 7 final 1 yes 1 1 28 Male Right Morning B 2018-09-04 10:04:35 32 764 1 0 un novelword 2
buersa 12034 A NA NA NA NA NA NA NA 6.81 2 2 6 NA NA no 1 4 22 Male Right Morning A 2018-09-19 13:50:24 32 2001 -1 0 un novelword 1
descovo 21030 B vescovo 1 3.754404315 7 6.78 1.95 1 6.8 1.95 1 7 initial 1 yes 1 3 25 Female Right Morning B 2018-09-19 09:54:40 32 1235 2 1 un novelword 2
equatoce 21014 B equatore 0 2.702806591 8 6.89 2.55 1 6.74 2.9 1 8 final 1 yes 1 11 25 Male Right Morning B 2018-11-02 13:41:00 32 1464 1 0 un novelword 1
gisaffa 21017 B giraffa 1 3.164051084 7 6.69 1.9 1 6.62 2.7 1 7 middle 1 yes 1 17 24 Male Right Morning B 2018-11-15 14:10:31 32 1176 2 1 un novelword 1
matodice 22044 B NA NA NA NA NA NA NA 6.9 2.5 2 8 NA NA no 1 27 20 Female Right Morning B 2019-01-21 13:43:02 32 2001 -1 0 un novelword 2
nicopina 11022 A nicotina 1 3.149964622 8 6.96 2.45 1 6.9 2.6 1 8 middle 1 yes 1 14 22 Female Right Morning A 2018-11-12 13:44:47 32 767 2 1 un novelword 2
spitana 12047 A NA NA NA NA NA NA NA 6.93 1.95 1 7 NA NA no 1 8 24 Female Right Morning A 2018-10-16 13:48:31 32 1581 1 0 un novelword 3
unguria 11006 A anguria 1 2.946798086 7 6.94 1.95 1 6.8 2.1 1 7 initial 1 yes 1 26 27 Female Right Morning A 2019-01-21 10:01:44 32 1085 2 1 un novelword 1
mascuge NA NA NA NA NA NA NA NA NA NA NA NA NA NA NA NA 1 22 25 Male Right Morning A 2019-01-08 10:00:13 32 2001 -1 0 un NA 1
ostace NA NA NA NA NA NA NA NA NA NA NA NA NA NA NA NA 1 20 32 Female Right Morning A 2018-12-03 13:26:00 32 967 1 1 un NA 1
pafustra NA NA NA NA NA NA NA NA NA NA NA NA NA NA NA NA 1 16 24 Male Right Morning A 2018-11-15 10:03:56 32 1742 2 0 un NA 1
illarte NA NA NA NA NA NA NA NA NA NA NA NA NA NA NA NA 1 23 32 Female Right Morning B 2019-01-08 13:42:19 32 813 2 0 un NA 1
chiosto 21009 B chiosco 1 3.327643797 7 6.85 1.9 1 6.89 1.65 1 7 final 1 yes 1 27 20 Female Right Morning B 2019-01-21 13:43:02 33 1830 1 0 un novelword 1
edicota 21013 B edicola 1 3.000482945 7 6.89 2 1 6.9 2.3 1 7 final 1 yes 1 1 28 Male Right Morning B 2018-09-04 10:04:35 33 1519 1 0 un novelword 2
ettinita 22038 B NA NA NA NA NA NA NA 6.97 2.55 2 8 NA NA no 1 3 25 Female Right Morning B 2018-09-19 09:54:40 33 1611 1 0 un novelword 3
fastero 12037 A NA NA NA NA NA NA NA 7.03 1.95 1 7 NA NA no 1 4 22 Male Right Morning A 2018-09-19 13:50:24 33 1988 1 0 un novelword 2
nicopina 11022 A nicotina 1 3.149964622 8 6.96 2.45 1 6.9 2.6 1 8 middle 1 yes 1 20 32 Female Right Morning A 2018-12-03 13:26:00 33 616 2 1 un novelword 2
picastro 21024 B pilastro 1 3.104737082 8 6.87 2.35 1 6.9 2.05 1 8 middle 1 yes 1 17 24 Male Right Morning B 2018-11-15 14:10:31 33 989 2 1 un novelword 2
alevimo NA NA NA NA NA NA NA NA NA NA NA NA NA NA NA NA 1 16 24 Male Right Morning A 2018-11-15 10:03:56 33 1396 2 0 un NA 1
finielu NA NA NA NA NA NA NA NA NA NA NA NA NA NA NA NA 1 22 25 Male Right Morning A 2019-01-08 10:00:13 33 1811 1 1 un NA 1
ostando NA NA NA NA NA NA NA NA NA NA NA NA NA NA NA NA 1 14 22 Female Right Morning A 2018-11-12 13:44:47 33 1169 1 1 un NA 1
titazza NA NA NA NA NA NA NA NA NA NA NA NA NA NA NA NA 1 8 24 Female Right Morning A 2018-10-16 13:48:31 33 1567 1 1 un NA 1
tropre NA NA NA NA NA NA NA NA NA NA NA NA NA NA NA NA 1 23 32 Female Right Morning B 2019-01-08 13:42:19 33 980 2 0 un NA 1
vendell NA NA NA NA NA NA NA NA NA NA NA NA NA NA NA NA 1 7 21 Male Right Morning B 2018-10-08 13:50:59 33 816 1 1 un NA 1
cermai NA NA NA NA NA NA NA NA NA NA NA NA NA NA NA NA 1 26 27 Female Right Morning A 2019-01-21 10:01:44 33 612 1 1 un NA 1
iamocca NA NA NA NA NA NA NA NA NA NA NA NA NA NA NA NA 1 11 25 Male Right Morning B 2018-11-02 13:41:00 33 953 1 1 un NA 1
aquigone 21003 B aquilone 1 3.201647095 8 6.72 2.55 1 6.64 2.8 1 8 middle 1 yes 1 7 21 Male Right Morning B 2018-10-08 13:50:59 34 1706 1 0 un novelword 2
bottefa 21006 B bottega 0 3.468532444 7 6.76 1.95 1 6.89 1.95 1 7 final 1 yes 1 1 28 Male Right Morning B 2018-09-04 10:04:35 34 790 2 1 un novelword 3
enalogia 21002 B analogia 1 3.010467166 8 6.93 2.05 1 6.9 2.15 1 8 initial 1 yes 1 27 20 Female Right Morning B 2019-01-21 13:43:02 34 1304 1 0 un novelword 2
alcuilpo NA NA NA NA NA NA NA NA NA NA NA NA NA NA NA NA 1 8 24 Female Right Morning A 2018-10-16 13:48:31 34 2001 -1 0 un NA 1
combodi NA NA NA NA NA NA NA NA NA NA NA NA NA NA NA NA 1 17 24 Male Right Morning B 2018-11-15 14:10:31 34 1081 1 1 un NA 1
edevore NA NA NA NA NA NA NA NA NA NA NA NA NA NA NA NA 1 22 25 Male Right Morning A 2019-01-08 10:00:13 34 1131 2 0 un NA 1
edisba NA NA NA NA NA NA NA NA NA NA NA NA NA NA NA NA 1 14 22 Female Right Morning A 2018-11-12 13:44:47 34 1196 1 1 un NA 1
ganque NA NA NA NA NA NA NA NA NA NA NA NA NA NA NA NA 1 11 25 Male Right Morning B 2018-11-02 13:41:00 34 1201 1 1 un NA 1
iscosare NA NA NA NA NA NA NA NA NA NA NA NA NA NA NA NA 1 20 32 Female Right Morning A 2018-12-03 13:26:00 34 889 1 1 un NA 1
mentalto NA NA NA NA NA NA NA NA NA NA NA NA NA NA NA NA 1 26 27 Female Right Morning A 2019-01-21 10:01:44 34 874 1 1 un NA 1
mentami NA NA NA NA NA NA NA NA NA NA NA NA NA NA NA NA 1 4 22 Male Right Morning A 2018-09-19 13:50:24 34 1650 2 0 un NA 1
subiati NA NA NA NA NA NA NA NA NA NA NA NA NA NA NA NA 1 3 25 Female Right Morning B 2018-09-19 09:54:40 34 908 2 0 un NA 1
agelpo NA NA NA NA NA NA NA NA NA NA NA NA NA NA NA NA 1 23 32 Female Right Morning B 2019-01-08 13:42:19 34 799 1 1 un NA 1
raceli NA NA NA NA NA NA NA NA NA NA NA NA NA NA NA NA 1 16 24 Male Right Morning A 2018-11-15 10:03:56 34 1522 1 1 un NA 1
buersa 12034 A NA NA NA NA NA NA NA 6.81 2 2 6 NA NA no 1 4 22 Male Right Morning A 2018-09-19 13:50:24 35 1300 2 1 un novelword 2
mefinga 11021 A meringa 1 2.668044485 7 7.02 1.95 1 6.73 2.4 1 7 middle 1 yes 1 20 32 Female Right Morning A 2018-12-03 13:26:00 35 799 2 1 un novelword 2
ospigio 21023 B ospizio 1 3.444987683 7 6.66 2.2 1 6.7 2.4 1 7 final 1 yes 1 1 28 Male Right Morning B 2018-09-04 10:04:35 35 619 2 1 un novelword 3
rassoio 11030 A vassoio 0 3.540200757 7 6.75 1.95 1 6.86 1.85 1 7 initial 1 yes 1 8 24 Female Right Morning A 2018-10-16 13:48:31 35 1103 1 0 un novelword 1
scapippo 12045 A NA NA NA NA NA NA NA 6.65 2.75 2 8 NA NA no 1 16 24 Male Right Morning A 2018-11-15 10:03:56 35 1038 2 1 un novelword 2
ardalli NA NA NA NA NA NA NA NA NA NA NA NA NA NA NA NA 1 23 32 Female Right Morning B 2019-01-08 13:42:19 35 1125 2 0 un NA 1
ertitamo NA NA NA NA NA NA NA NA NA NA NA NA NA NA NA NA 1 17 24 Male Right Morning B 2018-11-15 14:10:31 35 1011 1 1 un NA 1
escipa NA NA NA NA NA NA NA NA NA NA NA NA NA NA NA NA 1 27 20 Female Right Morning B 2019-01-21 13:43:02 35 2001 -1 0 un NA 1
olpiato NA NA NA NA NA NA NA NA NA NA NA NA NA NA NA NA 1 14 22 Female Right Morning A 2018-11-12 13:44:47 35 1076 2 0 un NA 1
omegio NA NA NA NA NA NA NA NA NA NA NA NA NA NA NA NA 1 26 27 Female Right Morning A 2019-01-21 10:01:44 35 713 1 1 un NA 1
orrita NA NA NA NA NA NA NA NA NA NA NA NA NA NA NA NA 1 11 25 Male Right Morning B 2018-11-02 13:41:00 35 757 2 0 un NA 1
sevizza NA NA NA NA NA NA NA NA NA NA NA NA NA NA NA NA 1 3 25 Female Right Morning B 2018-09-19 09:54:40 35 1018 2 0 un NA 1
tescorma NA NA NA NA NA NA NA NA NA NA NA NA NA NA NA NA 1 22 25 Male Right Morning A 2019-01-08 10:00:13 35 1885 1 1 un NA 1
uccezio NA NA NA NA NA NA NA NA NA NA NA NA NA NA NA NA 1 7 21 Male Right Morning B 2018-10-08 13:50:59 35 1218 1 1 un NA 1
descovo 21030 B vescovo 1 3.754404315 7 6.78 1.95 1 6.8 1.95 1 7 initial 1 yes 1 11 25 Male Right Morning B 2018-11-02 13:41:00 36 742 2 1 un novelword 3
forzica 11018 A formica 2 3.390952497 7 6.82 1.85 1 6.76 1.9 1 7 middle 1 yes 1 14 22 Female Right Morning A 2018-11-12 13:44:47 36 1642 1 0 un novelword 3
mastenza 12043 A NA NA NA NA NA NA NA 6.9 2.25 2 8 NA NA no 1 20 32 Female Right Morning A 2018-12-03 13:26:00 36 1114 2 1 un novelword 2
pieppo 11025 A pioppo 1 2.458094958 6 6.61 1.95 1 6.54 1.9 1 6 middle 1 yes 1 16 24 Male Right Morning A 2018-11-15 10:03:56 36 1300 2 1 un novelword 2
tariffu 21005 B tariffa 1 3.416232512 7 6.91 2.2 1 6.9 2.7 1 7 final 1 yes 1 7 21 Male Right Morning B 2018-10-08 13:50:59 36 1524 1 0 un novelword 1
tullordi 12050 A NA NA NA NA NA NA NA 6.71 3 3 8 NA NA no 1 22 25 Male Right Morning A 2019-01-08 10:00:13 36 1550 2 1 un novelword 3
cosasso NA NA NA NA NA NA NA NA NA NA NA NA NA NA NA NA 1 17 24 Male Right Morning B 2018-11-15 14:10:31 36 1129 2 0 un NA 1
dalego NA NA NA NA NA NA NA NA NA NA NA NA NA NA NA NA 1 4 22 Male Right Morning A 2018-09-19 13:50:24 36 2001 -1 0 un NA 1
latesse NA NA NA NA NA NA NA NA NA NA NA NA NA NA NA NA 1 3 25 Female Right Morning B 2018-09-19 09:54:40 36 1030 1 1 un NA 1
piacia NA NA NA NA NA NA NA NA NA NA NA NA NA NA NA NA 1 8 24 Female Right Morning A 2018-10-16 13:48:31 36 1400 1 1 un NA 1
pienpata NA NA NA NA NA NA NA NA NA NA NA NA NA NA NA NA 1 23 32 Female Right Morning B 2019-01-08 13:42:19 36 2001 -1 0 un NA 1
scippo NA NA NA NA NA NA NA NA NA NA NA NA NA NA NA NA 1 1 28 Male Right Morning B 2018-09-04 10:04:35 36 786 1 1 un NA 1
trapiu NA NA NA NA NA NA NA NA NA NA NA NA NA NA NA NA 1 27 20 Female Right Morning B 2019-01-21 13:43:02 36 1559 1 1 un NA 1
vanadero NA NA NA NA NA NA NA NA NA NA NA NA NA NA NA NA 1 26 27 Female Right Morning A 2019-01-21 10:01:44 36 985 1 1 un NA 1
bisconto 11010 A biscotto 1 3.810538236 8 6.86 1.95 1 6.95 1.9 1 8 final 1 yes 1 26 27 Female Right Morning A 2019-01-21 10:01:44 37 1742 2 1 un novelword 3
buscio 11020 A guscio 1 3.558279151 6 6.7 1.8 1 6.69 1.75 1 6 initial 1 yes 1 22 25 Male Right Morning A 2019-01-08 10:00:13 37 744 2 1 un novelword 3
chiosto 21009 B chiosco 1 3.327643797 7 6.85 1.9 1 6.89 1.65 1 7 final 1 yes 1 27 20 Female Right Morning B 2019-01-21 13:43:02 37 2001 -1 0 un novelword 2
arrialda NA NA NA NA NA NA NA NA NA NA NA NA NA NA NA NA 1 23 32 Female Right Morning B 2019-01-08 13:42:19 37 521 2 0 un NA 1
gracche NA NA NA NA NA NA NA NA NA NA NA NA NA NA NA NA 1 11 25 Male Right Morning B 2018-11-02 13:41:00 37 961 1 1 un NA 1
igindo NA NA NA NA NA NA NA NA NA NA NA NA NA NA NA NA 1 16 24 Male Right Morning A 2018-11-15 10:03:56 37 1588 1 1 un NA 1
mastode NA NA NA NA NA NA NA NA NA NA NA NA NA NA NA NA 1 17 24 Male Right Morning B 2018-11-15 14:10:31 37 1024 2 0 un NA 1
orglio NA NA NA NA NA NA NA NA NA NA NA NA NA NA NA NA 1 1 28 Male Right Morning B 2018-09-04 10:04:35 37 691 1 1 un NA 1
ovvene NA NA NA NA NA NA NA NA NA NA NA NA NA NA NA NA 1 7 21 Male Right Morning B 2018-10-08 13:50:59 37 674 2 0 un NA 1
prembe NA NA NA NA NA NA NA NA NA NA NA NA NA NA NA NA 1 14 22 Female Right Morning A 2018-11-12 13:44:47 37 979 1 1 un NA 1
volinuo NA NA NA NA NA NA NA NA NA NA NA NA NA NA NA NA 1 8 24 Female Right Morning A 2018-10-16 13:48:31 37 1711 2 0 un NA 1
zimelsi NA NA NA NA NA NA NA NA NA NA NA NA NA NA NA NA 1 3 25 Female Right Morning B 2018-09-19 09:54:40 37 1728 1 1 un NA 1
avorte NA NA NA NA NA NA NA NA NA NA NA NA NA NA NA NA 1 20 32 Female Right Morning A 2018-12-03 13:26:00 37 1069 1 1 un NA 1
tiesbo NA NA NA NA NA NA NA NA NA NA NA NA NA NA NA NA 1 4 22 Male Right Morning A 2018-09-19 13:50:24 37 1909 1 1 un NA 1
bagate 22032 B NA NA NA NA NA NA NA 6.89 1.35 1 6 NA NA no 1 1 28 Male Right Morning B 2018-09-04 10:04:35 38 789 2 1 un novelword 2
bomuparo 12033 A NA NA NA NA NA NA NA 6.76 2.95 2 8 NA NA no 1 16 24 Male Right Morning A 2018-11-15 10:03:56 38 995 2 1 un novelword 1
bottefa 21006 B bottega 0 3.468532444 7 6.76 1.95 1 6.89 1.95 1 7 final 1 yes 1 11 25 Male Right Morning B 2018-11-02 13:41:00 38 889 2 1 un novelword 2
cortario 22037 B NA NA NA NA NA NA NA 7.03 1.85 1 8 NA NA no 1 7 21 Male Right Morning B 2018-10-08 13:50:59 38 1354 1 0 un novelword 2
gerilla 11019 A gorilla 1 3.749031532 7 6.89 1.85 1 6.98 1.8 1 7 initial 1 yes 1 4 22 Male Right Morning A 2018-09-19 13:50:24 38 895 2 1 un novelword 2
diesbalo NA NA NA NA NA NA NA NA NA NA NA NA NA NA NA NA 1 14 22 Female Right Morning A 2018-11-12 13:44:47 38 978 1 1 un NA 1
edevore NA NA NA NA NA NA NA NA NA NA NA NA NA NA NA NA 1 8 24 Female Right Morning A 2018-10-16 13:48:31 38 1531 2 0 un NA 1
impecre NA NA NA NA NA NA NA NA NA NA NA NA NA NA NA NA 1 17 24 Male Right Morning B 2018-11-15 14:10:31 38 950 1 1 un NA 1
mindie NA NA NA NA NA NA NA NA NA NA NA NA NA NA NA NA 1 3 25 Female Right Morning B 2018-09-19 09:54:40 38 761 2 0 un NA 1
reociso NA NA NA NA NA NA NA NA NA NA NA NA NA NA NA NA 1 22 25 Male Right Morning A 2019-01-08 10:00:13 38 2001 -1 0 un NA 1
tategua NA NA NA NA NA NA NA NA NA NA NA NA NA NA NA NA 1 27 20 Female Right Morning B 2019-01-21 13:43:02 38 2001 -1 0 un NA 1
imindo NA NA NA NA NA NA NA NA NA NA NA NA NA NA NA NA 1 26 27 Female Right Morning A 2019-01-21 10:01:44 38 735 2 0 un NA 1
pontab NA NA NA NA NA NA NA NA NA NA NA NA NA NA NA NA 1 20 32 Female Right Morning A 2018-12-03 13:26:00 38 948 2 0 un NA 1
premire NA NA NA NA NA NA NA NA NA NA NA NA NA NA NA NA 1 23 32 Female Right Morning B 2019-01-08 13:42:19 38 465 1 1 un NA 1
antensa 11007 A antenna 1 3.425187354 7 7.02 1.95 1 7.01 1.9 1 7 final 1 yes 1 22 25 Male Right Morning A 2019-01-08 10:00:13 39 1116 2 1 un novelword 2
inguilla 11005 A anguilla 1 3.016998033 8 6.79 2.1 1 6.77 2.4 1 8 initial 1 yes 1 26 27 Female Right Morning A 2019-01-21 10:01:44 39 618 2 1 un novelword 2
pievra 21025 B piovra 1 2.764954498 6 6.75 1.85 1 6.72 1.8 1 6 middle 1 yes 1 7 21 Male Right Morning B 2018-10-08 13:50:59 39 583 2 1 un novelword 3
attima NA NA NA NA NA NA NA NA NA NA NA NA NA NA NA NA 1 14 22 Female Right Morning A 2018-11-12 13:44:47 39 803 2 0 un NA 1
boammice NA NA NA NA NA NA NA NA NA NA NA NA NA NA NA NA 1 8 24 Female Right Morning A 2018-10-16 13:48:31 39 1814 1 1 un NA 1
mentalto NA NA NA NA NA NA NA NA NA NA NA NA NA NA NA NA 1 3 25 Female Right Morning B 2018-09-19 09:54:40 39 723 1 1 un NA 1
ordanon NA NA NA NA NA NA NA NA NA NA NA NA NA NA NA NA 1 1 28 Male Right Morning B 2018-09-04 10:04:35 39 584 1 1 un NA 1
ravoglio NA NA NA NA NA NA NA NA NA NA NA NA NA NA NA NA 1 17 24 Male Right Morning B 2018-11-15 14:10:31 39 1161 2 0 un NA 1
titangro NA NA NA NA NA NA NA NA NA NA NA NA NA NA NA NA 1 16 24 Male Right Morning A 2018-11-15 10:03:56 39 1179 2 0 un NA 1
toriga NA NA NA NA NA NA NA NA NA NA NA NA NA NA NA NA 1 4 22 Male Right Morning A 2018-09-19 13:50:24 39 2001 -1 0 un NA 1
vegelle NA NA NA NA NA NA NA NA NA NA NA NA NA NA NA NA 1 27 20 Female Right Morning B 2019-01-21 13:43:02 39 2001 -1 0 un NA 1
elvervi NA NA NA NA NA NA NA NA NA NA NA NA NA NA NA NA 1 23 32 Female Right Morning B 2019-01-08 13:42:19 39 776 1 1 un NA 1
ioriaga NA NA NA NA NA NA NA NA NA NA NA NA NA NA NA NA 1 11 25 Male Right Morning B 2018-11-02 13:41:00 39 1185 2 0 un NA 1
raceli NA NA NA NA NA NA NA NA NA NA NA NA NA NA NA NA 1 20 32 Female Right Morning A 2018-12-03 13:26:00 39 1133 2 0 un NA 1
bosigene 22034 B NA NA NA NA NA NA NA 6.8 2.85 2 8 NA NA no 1 7 21 Male Right Morning B 2018-10-08 13:50:59 40 1209 2 1 un novelword 3
corazia 11015 A corazza 1 3.112609706 7 6.85 1.9 1 6.95 1.9 1 7 final 1 yes 1 14 22 Female Right Morning A 2018-11-12 13:44:47 40 1028 2 1 un novelword 2
forzica 11018 A formica 2 3.390952497 7 6.82 1.85 1 6.76 1.9 1 7 middle 1 yes 1 8 24 Female Right Morning A 2018-10-16 13:48:31 40 676 2 1 un novelword 3
frilmodo 12039 A NA NA NA NA NA NA NA 6.71 3 3 8 NA NA no 1 20 32 Female Right Morning A 2018-12-03 13:26:00 40 576 2 1 un novelword 2
mastenza 12043 A NA NA NA NA NA NA NA 6.9 2.25 2 8 NA NA no 1 22 25 Male Right Morning A 2019-01-08 10:00:13 40 2001 -1 0 un novelword 2
scapippo 12045 A NA NA NA NA NA NA NA 6.65 2.75 2 8 NA NA no 1 26 27 Female Right Morning A 2019-01-21 10:01:44 40 871 1 0 un novelword 2
alcodi NA NA NA NA NA NA NA NA NA NA NA NA NA NA NA NA 1 3 25 Female Right Morning B 2018-09-19 09:54:40 40 881 2 0 un NA 1
avolasi NA NA NA NA NA NA NA NA NA NA NA NA NA NA NA NA 1 1 28 Male Right Morning B 2018-09-04 10:04:35 40 646 1 1 un NA 1
dalcuto NA NA NA NA NA NA NA NA NA NA NA NA NA NA NA NA 1 4 22 Male Right Morning A 2018-09-19 13:50:24 40 1196 2 0 un NA 1
idiarla NA NA NA NA NA NA NA NA NA NA NA NA NA NA NA NA 1 17 24 Male Right Morning B 2018-11-15 14:10:31 40 952 1 1 un NA 1
mezziome NA NA NA NA NA NA NA NA NA NA NA NA NA NA NA NA 1 11 25 Male Right Morning B 2018-11-02 13:41:00 40 1359 1 1 un NA 1
tuainche NA NA NA NA NA NA NA NA NA NA NA NA NA NA NA NA 1 27 20 Female Right Morning B 2019-01-21 13:43:02 40 2001 -1 0 un NA 1
narvedue NA NA NA NA NA NA NA NA NA NA NA NA NA NA NA NA 1 16 24 Male Right Morning A 2018-11-15 10:03:56 40 1711 2 0 un NA 1
ursolto NA NA NA NA NA NA NA NA NA NA NA NA NA NA NA NA 1 23 32 Female Right Morning B 2019-01-08 13:42:19 40 669 2 0 un NA 1
fomirto 12038 A NA NA NA NA NA NA NA 6.73 2.45 2 7 NA NA no 1 26 27 Female Right Morning A 2019-01-21 10:01:44 41 577 2 1 un novelword 3
gateri 22043 B NA NA NA NA NA NA NA 7.12 1.95 1 6 NA NA no 1 3 25 Female Right Morning B 2018-09-19 09:54:40 41 1315 2 1 un novelword 2
gerilla 11019 A gorilla 1 3.749031532 7 6.89 1.85 1 6.98 1.8 1 7 initial 1 yes 1 8 24 Female Right Morning A 2018-10-16 13:48:31 41 731 2 1 un novelword 2
tariffu 21005 B tariffa 1 3.416232512 7 6.91 2.2 1 6.9 2.7 1 7 final 1 yes 1 23 32 Female Right Morning B 2019-01-08 13:42:19 41 912 2 1 un novelword 2
boammice NA NA NA NA NA NA NA NA NA NA NA NA NA NA NA NA 1 16 24 Male Right Morning A 2018-11-15 10:03:56 41 1237 2 0 un NA 1
chiffure NA NA NA NA NA NA NA NA NA NA NA NA NA NA NA NA 1 11 25 Male Right Morning B 2018-11-02 13:41:00 41 838 2 0 un NA 1
frolpe NA NA NA NA NA NA NA NA NA NA NA NA NA NA NA NA 1 27 20 Female Right Morning B 2019-01-21 13:43:02 41 2001 -1 0 un NA 1
frolpe NA NA NA NA NA NA NA NA NA NA NA NA NA NA NA NA 1 17 24 Male Right Morning B 2018-11-15 14:10:31 41 1199 1 1 un NA 1
licarce NA NA NA NA NA NA NA NA NA NA NA NA NA NA NA NA 1 22 25 Male Right Morning A 2019-01-08 10:00:13 41 1961 1 1 un NA 1
mentami NA NA NA NA NA NA NA NA NA NA NA NA NA NA NA NA 1 14 22 Female Right Morning A 2018-11-12 13:44:47 41 969 1 1 un NA 1
nipaiupo NA NA NA NA NA NA NA NA NA NA NA NA NA NA NA NA 1 4 22 Male Right Morning A 2018-09-19 13:50:24 41 1859 1 1 un NA 1
pafustra NA NA NA NA NA NA NA NA NA NA NA NA NA NA NA NA 1 1 28 Male Right Morning B 2018-09-04 10:04:35 41 1086 2 0 un NA 1
perandre NA NA NA NA NA NA NA NA NA NA NA NA NA NA NA NA 1 20 32 Female Right Morning A 2018-12-03 13:26:00 41 1220 1 1 un NA 1
senvra NA NA NA NA NA NA NA NA NA NA NA NA NA NA NA NA 1 7 21 Male Right Morning B 2018-10-08 13:50:59 41 901 1 1 un NA 1
augubio 21004 B augurio 1 2.942971678 7 6.68 1.85 1 6.41 2.7 1 7 middle 1 yes 1 17 24 Male Right Morning B 2018-11-15 14:10:31 42 1967 1 0 un novelword 3
bomuparo 12033 A NA NA NA NA NA NA NA 6.76 2.95 2 8 NA NA no 1 16 24 Male Right Morning A 2018-11-15 10:03:56 42 1809 1 0 un novelword 2
cortario 22037 B NA NA NA NA NA NA NA 7.03 1.85 1 8 NA NA no 1 1 28 Male Right Morning B 2018-09-04 10:04:35 42 1643 1 0 un novelword 3
favange 21015 B falange 1 2.533345911 7 6.86 1.85 1 6.76 2.15 1 7 middle 1 yes 1 11 25 Male Right Morning B 2018-11-02 13:41:00 42 1184 2 1 un novelword 2
tartubo 11028 A tartufo 1 3.051261237 7 6.81 2.25 1 6.81 2.35 1 7 final 1 yes 1 14 22 Female Right Morning A 2018-11-12 13:44:47 42 816 1 0 un novelword 1
tulifano 21029 B tulipano 1 2.614169104 8 6.83 2.45 1 6.79 2.4 1 8 middle 1 yes 1 27 20 Female Right Morning B 2019-01-21 13:43:02 42 1591 2 1 un novelword 2
tullordi 12050 A NA NA NA NA NA NA NA 6.71 3 3 8 NA NA no 1 4 22 Male Right Morning A 2018-09-19 13:50:24 42 1636 1 0 un novelword 1
iscosare NA NA NA NA NA NA NA NA NA NA NA NA NA NA NA NA 1 8 24 Female Right Morning A 2018-10-16 13:48:31 42 1408 2 0 un NA 1
paressi NA NA NA NA NA NA NA NA NA NA NA NA NA NA NA NA 1 3 25 Female Right Morning B 2018-09-19 09:54:40 42 1321 1 1 un NA 1
rarchio NA NA NA NA NA NA NA NA NA NA NA NA NA NA NA NA 1 20 32 Female Right Morning A 2018-12-03 13:26:00 42 997 1 1 un NA 1
stiandei NA NA NA NA NA NA NA NA NA NA NA NA NA NA NA NA 1 23 32 Female Right Morning B 2019-01-08 13:42:19 42 894 1 1 un NA 1
agelpo NA NA NA NA NA NA NA NA NA NA NA NA NA NA NA NA 1 26 27 Female Right Morning A 2019-01-21 10:01:44 42 781 1 1 un NA 1
disinti NA NA NA NA NA NA NA NA NA NA NA NA NA NA NA NA 1 7 21 Male Right Morning B 2018-10-08 13:50:59 42 1082 1 1 un NA 1
istase NA NA NA NA NA NA NA NA NA NA NA NA NA NA NA NA 1 22 25 Male Right Morning A 2019-01-08 10:00:13 42 2001 -1 0 un NA 1
ettodria 12036 A NA NA NA NA NA NA NA 6.9 2.85 2 8 NA NA no 1 16 24 Male Right Morning A 2018-11-15 10:03:56 43 1019 2 1 un novelword 3
novaglia 21027 B tovaglia 1 3.026613802 8 6.83 2.25 1 6.8 2.55 1 8 initial 1 yes 1 7 21 Male Right Morning B 2018-10-08 13:50:59 43 967 2 1 un novelword 1
scatra 22045 B NA NA NA NA NA NA NA 7 1.6 1 6 NA NA no 1 11 25 Male Right Morning B 2018-11-02 13:41:00 43 702 2 1 un novelword 3
allabe NA NA NA NA NA NA NA NA NA NA NA NA NA NA NA NA 1 26 27 Female Right Morning A 2019-01-21 10:01:44 43 670 1 1 un NA 1
boammice NA NA NA NA NA NA NA NA NA NA NA NA NA NA NA NA 1 3 25 Female Right Morning B 2018-09-19 09:54:40 43 1524 2 0 un NA 1
cherfuro NA NA NA NA NA NA NA NA NA NA NA NA NA NA NA NA 1 20 32 Female Right Morning A 2018-12-03 13:26:00 43 1237 1 1 un NA 1
chialemo NA NA NA NA NA NA NA NA NA NA NA NA NA NA NA NA 1 27 20 Female Right Morning B 2019-01-21 13:43:02 43 2001 -1 0 un NA 1
chomple NA NA NA NA NA NA NA NA NA NA NA NA NA NA NA NA 1 23 32 Female Right Morning B 2019-01-08 13:42:19 43 663 1 1 un NA 1
iettore NA NA NA NA NA NA NA NA NA NA NA NA NA NA NA NA 1 17 24 Male Right Morning B 2018-11-15 14:10:31 43 2001 -1 0 un NA 1
iteggio NA NA NA NA NA NA NA NA NA NA NA NA NA NA NA NA 1 14 22 Female Right Morning A 2018-11-12 13:44:47 43 1144 2 0 un NA 1
ramodi NA NA NA NA NA NA NA NA NA NA NA NA NA NA NA NA 1 8 24 Female Right Morning A 2018-10-16 13:48:31 43 968 1 1 un NA 1
untela NA NA NA NA NA NA NA NA NA NA NA NA NA NA NA NA 1 1 28 Male Right Morning B 2018-09-04 10:04:35 43 706 1 1 un NA 1
ituste NA NA NA NA NA NA NA NA NA NA NA NA NA NA NA NA 1 4 22 Male Right Morning A 2018-09-19 13:50:24 43 1336 1 1 un NA 1
verezi NA NA NA NA NA NA NA NA NA NA NA NA NA NA NA NA 1 22 25 Male Right Morning A 2019-01-08 10:00:13 43 1606 1 1 un NA 1
aquigone 21003 B aquilone 1 3.201647095 8 6.72 2.55 1 6.64 2.8 1 8 middle 1 yes 1 7 21 Male Right Morning B 2018-10-08 13:50:59 44 2001 -1 0 un novelword 3
ciaffo 11012 A ciuffo 1 2.954351224 6 6.41 1.9 1 6.72 1.95 1 6 middle 1 yes 1 14 22 Female Right Morning A 2018-11-12 13:44:47 44 611 2 1 un novelword 2
gabassia 21016 B galassia 1 3.907760953 8 6.91 2.3 1 6.81 2.5 1 8 middle 1 yes 1 11 25 Male Right Morning B 2018-11-02 13:41:00 44 1157 1 0 un novelword 1
gisaffa 21017 B giraffa 1 3.164051084 7 6.69 1.9 1 6.62 2.7 1 7 middle 1 yes 1 17 24 Male Right Morning B 2018-11-15 14:10:31 44 1318 2 1 un novelword 2
scapippo 12045 A NA NA NA NA NA NA NA 6.65 2.75 2 8 NA NA no 1 16 24 Male Right Morning A 2018-11-15 10:03:56 44 977 2 1 un novelword 3
scapippo 12045 A NA NA NA NA NA NA NA 6.65 2.75 2 8 NA NA no 1 4 22 Male Right Morning A 2018-09-19 13:50:24 44 1628 1 0 un novelword 2
sentesto 12046 A NA NA NA NA NA NA NA 7.01 2 2 8 NA NA no 1 20 32 Female Right Morning A 2018-12-03 13:26:00 44 1191 2 1 un novelword 2
alusco NA NA NA NA NA NA NA NA NA NA NA NA NA NA NA NA 1 27 20 Female Right Morning B 2019-01-21 13:43:02 44 1710 2 0 un NA 1
caspara NA NA NA NA NA NA NA NA NA NA NA NA NA NA NA NA 1 26 27 Female Right Morning A 2019-01-21 10:01:44 44 669 1 1 un NA 1
ereoppi NA NA NA NA NA NA NA NA NA NA NA NA NA NA NA NA 1 3 25 Female Right Morning B 2018-09-19 09:54:40 44 902 2 0 un NA 1
libosi NA NA NA NA NA NA NA NA NA NA NA NA NA NA NA NA 1 23 32 Female Right Morning B 2019-01-08 13:42:19 44 743 2 0 un NA 1
obranide NA NA NA NA NA NA NA NA NA NA NA NA NA NA NA NA 1 1 28 Male Right Morning B 2018-09-04 10:04:35 44 1149 1 1 un NA 1
bamerie NA NA NA NA NA NA NA NA NA NA NA NA NA NA NA NA 1 8 24 Female Right Morning A 2018-10-16 13:48:31 44 906 2 0 un NA 1
iderazi NA NA NA NA NA NA NA NA NA NA NA NA NA NA NA NA 1 22 25 Male Right Morning A 2019-01-08 10:00:13 44 2001 -1 0 un NA 1
amulero 11003 A amuleto 1 3.319645514 7 6.79 2 1 6.91 2.2 1 7 final 1 yes 1 16 24 Male Right Morning A 2018-11-15 10:03:56 45 1383 1 0 un novelword 1
anguato 21001 B agguato 1 3.494119287 7 6.76 1.9 1 6.91 1.75 1 7 initial 1 yes 1 27 20 Female Right Morning B 2019-01-21 13:43:02 45 2001 -1 0 un novelword 2
ascuccio 11009 A astuccio 0 2.653321228 8 6.78 1.95 1 6.73 2.2 1 8 middle 1 yes 1 20 32 Female Right Morning A 2018-12-03 13:26:00 45 739 2 1 un novelword 3
bagate 22032 B NA NA NA NA NA NA NA 6.89 1.35 1 6 NA NA no 1 1 28 Male Right Morning B 2018-09-04 10:04:35 45 601 2 1 un novelword 3
gannolo 21007 B cannolo 1 2.689233784 7 6.91 1.95 1 6.86 1.95 1 7 initial 1 yes 1 3 25 Female Right Morning B 2018-09-19 09:54:40 45 1046 1 0 un novelword 2
picastro 21024 B pilastro 1 3.104737082 8 6.87 2.35 1 6.9 2.05 1 8 middle 1 yes 1 17 24 Male Right Morning B 2018-11-15 14:10:31 45 716 2 1 un novelword 3
tenopo 12049 A NA NA NA NA NA NA NA 6.92 2 2 6 NA NA no 1 8 24 Female Right Morning A 2018-10-16 13:48:31 45 1502 1 0 un novelword 2
cosono NA NA NA NA NA NA NA NA NA NA NA NA NA NA NA NA 1 4 22 Male Right Morning A 2018-09-19 13:50:24 45 1766 2 0 un NA 1
dalcuto NA NA NA NA NA NA NA NA NA NA NA NA NA NA NA NA 1 14 22 Female Right Morning A 2018-11-12 13:44:47 45 1176 1 1 un NA 1
dobbispa NA NA NA NA NA NA NA NA NA NA NA NA NA NA NA NA 1 11 25 Male Right Morning B 2018-11-02 13:41:00 45 1044 2 0 un NA 1
fidefe NA NA NA NA NA NA NA NA NA NA NA NA NA NA NA NA 1 23 32 Female Right Morning B 2019-01-08 13:42:19 45 793 2 0 un NA 1
gnorodo NA NA NA NA NA NA NA NA NA NA NA NA NA NA NA NA 1 7 21 Male Right Morning B 2018-10-08 13:50:59 45 1561 1 1 un NA 1
isolasbi NA NA NA NA NA NA NA NA NA NA NA NA NA NA NA NA 1 26 27 Female Right Morning A 2019-01-21 10:01:44 45 738 1 1 un NA 1
quellasi NA NA NA NA NA NA NA NA NA NA NA NA NA NA NA NA 1 22 25 Male Right Morning A 2019-01-08 10:00:13 45 2001 -1 0 un NA 1
apostomo 11008 A apostolo 1 2.715968037 8 6.85 2 1 6.84 2.55 1 8 final 1 yes 1 26 27 Female Right Morning A 2019-01-21 10:01:44 46 892 2 1 un novelword 2
chiosto 21009 B chiosco 1 3.327643797 7 6.85 1.9 1 6.89 1.65 1 7 final 1 yes 1 27 20 Female Right Morning B 2019-01-21 13:43:02 46 2001 -1 0 un novelword 3
inguilla 11005 A anguilla 1 3.016998033 8 6.79 2.1 1 6.77 2.4 1 8 initial 1 yes 1 22 25 Male Right Morning A 2019-01-08 10:00:13 46 665 2 1 un novelword 2
mastenza 12043 A NA NA NA NA NA NA NA 6.9 2.25 2 8 NA NA no 1 20 32 Female Right Morning A 2018-12-03 13:26:00 46 574 2 1 un novelword 3
rassoio 11030 A vassoio 0 3.540200757 7 6.75 1.95 1 6.86 1.85 1 7 initial 1 yes 1 8 24 Female Right Morning A 2018-10-16 13:48:31 46 957 2 1 un novelword 2
cossof NA NA NA NA NA NA NA NA NA NA NA NA NA NA NA NA 1 4 22 Male Right Morning A 2018-09-19 13:50:24 46 2001 -1 0 un NA 1
impecre NA NA NA NA NA NA NA NA NA NA NA NA NA NA NA NA 1 1 28 Male Right Morning B 2018-09-04 10:04:35 46 673 1 1 un NA 1
losaghia NA NA NA NA NA NA NA NA NA NA NA NA NA NA NA NA 1 17 24 Male Right Morning B 2018-11-15 14:10:31 46 989 1 1 un NA 1
mezziome NA NA NA NA NA NA NA NA NA NA NA NA NA NA NA NA 1 3 25 Female Right Morning B 2018-09-19 09:54:40 46 1110 2 0 un NA 1
oposso NA NA NA NA NA NA NA NA NA NA NA NA NA NA NA NA 1 14 22 Female Right Morning A 2018-11-12 13:44:47 46 997 1 1 un NA 1
rizialo NA NA NA NA NA NA NA NA NA NA NA NA NA NA NA NA 1 16 24 Male Right Morning A 2018-11-15 10:03:56 46 1219 1 1 un NA 1
vegelle NA NA NA NA NA NA NA NA NA NA NA NA NA NA NA NA 1 7 21 Male Right Morning B 2018-10-08 13:50:59 46 1272 1 1 un NA 1
disinti NA NA NA NA NA NA NA NA NA NA NA NA NA NA NA NA 1 23 32 Female Right Morning B 2019-01-08 13:42:19 46 1201 1 1 un NA 1
ricesto NA NA NA NA NA NA NA NA NA NA NA NA NA NA NA NA 1 11 25 Male Right Morning B 2018-11-02 13:41:00 46 1037 2 0 un NA 1
amulero 11003 A amuleto 1 3.319645514 7 6.79 2 1 6.91 2.2 1 7 final 1 yes 1 26 27 Female Right Morning A 2019-01-21 10:01:44 47 585 2 1 un novelword 3
bomuparo 12033 A NA NA NA NA NA NA NA 6.76 2.95 2 8 NA NA no 1 16 24 Male Right Morning A 2018-11-15 10:03:56 47 1364 2 1 un novelword 3
novaglia 21027 B tovaglia 1 3.026613802 8 6.83 2.25 1 6.8 2.55 1 8 initial 1 yes 1 7 21 Male Right Morning B 2018-10-08 13:50:59 47 1125 2 1 un novelword 2
amestapo NA NA NA NA NA NA NA NA NA NA NA NA NA NA NA NA 1 20 32 Female Right Morning A 2018-12-03 13:26:00 47 665 1 1 un NA 1
caetto NA NA NA NA NA NA NA NA NA NA NA NA NA NA NA NA 1 11 25 Male Right Morning B 2018-11-02 13:41:00 47 814 2 0 un NA 1
combodi NA NA NA NA NA NA NA NA NA NA NA NA NA NA NA NA 1 4 22 Male Right Morning A 2018-09-19 13:50:24 47 1375 2 0 un NA 1
dratemo NA NA NA NA NA NA NA NA NA NA NA NA NA NA NA NA 1 3 25 Female Right Morning B 2018-09-19 09:54:40 47 1624 1 1 un NA 1
irlabi NA NA NA NA NA NA NA NA NA NA NA NA NA NA NA NA 1 27 20 Female Right Morning B 2019-01-21 13:43:02 47 2001 -1 0 un NA 1
liamenno NA NA NA NA NA NA NA NA NA NA NA NA NA NA NA NA 1 22 25 Male Right Morning A 2019-01-08 10:00:13 47 2001 -1 0 un NA 1
ollevia NA NA NA NA NA NA NA NA NA NA NA NA NA NA NA NA 1 17 24 Male Right Morning B 2018-11-15 14:10:31 47 1084 2 0 un NA 1
portente NA NA NA NA NA NA NA NA NA NA NA NA NA NA NA NA 1 8 24 Female Right Morning A 2018-10-16 13:48:31 47 1675 1 1 un NA 1
respalte NA NA NA NA NA NA NA NA NA NA NA NA NA NA NA NA 1 14 22 Female Right Morning A 2018-11-12 13:44:47 47 1154 2 0 un NA 1
trefio NA NA NA NA NA NA NA NA NA NA NA NA NA NA NA NA 1 1 28 Male Right Morning B 2018-09-04 10:04:35 47 1272 1 1 un NA 1
undetto NA NA NA NA NA NA NA NA NA NA NA NA NA NA NA NA 1 23 32 Female Right Morning B 2019-01-08 13:42:19 47 716 1 1 un NA 1
anguato 21001 B agguato 1 3.494119287 7 6.76 1.9 1 6.91 1.75 1 7 initial 1 yes 1 3 25 Female Right Morning B 2018-09-19 09:54:40 48 1024 2 1 un novelword 3
cortario 22037 B NA NA NA NA NA NA NA 7.03 1.85 1 8 NA NA no 1 7 21 Male Right Morning B 2018-10-08 13:50:59 48 679 2 1 un novelword 3
inguilla 11005 A anguilla 1 3.016998033 8 6.79 2.1 1 6.77 2.4 1 8 initial 1 yes 1 16 24 Male Right Morning A 2018-11-15 10:03:56 48 1321 2 1 un novelword 3
matodice 22044 B NA NA NA NA NA NA NA 6.9 2.5 2 8 NA NA no 1 27 20 Female Right Morning B 2019-01-21 13:43:02 48 1413 2 1 un novelword 3
tartubo 11028 A tartufo 1 3.051261237 7 6.81 2.25 1 6.81 2.35 1 7 final 1 yes 1 14 22 Female Right Morning A 2018-11-12 13:44:47 48 707 1 0 un novelword 2
dercato NA NA NA NA NA NA NA NA NA NA NA NA NA NA NA NA 1 4 22 Male Right Morning A 2018-09-19 13:50:24 48 2001 -1 0 un NA 1
ereddi NA NA NA NA NA NA NA NA NA NA NA NA NA NA NA NA 1 20 32 Female Right Morning A 2018-12-03 13:26:00 48 944 1 1 un NA 1
iscosare NA NA NA NA NA NA NA NA NA NA NA NA NA NA NA NA 1 1 28 Male Right Morning B 2018-09-04 10:04:35 48 752 1 1 un NA 1
liziolpo NA NA NA NA NA NA NA NA NA NA NA NA NA NA NA NA 1 11 25 Male Right Morning B 2018-11-02 13:41:00 48 1401 1 1 un NA 1
omenna NA NA NA NA NA NA NA NA NA NA NA NA NA NA NA NA 1 26 27 Female Right Morning A 2019-01-21 10:01:44 48 862 1 1 un NA 1
suomabo NA NA NA NA NA NA NA NA NA NA NA NA NA NA NA NA 1 8 24 Female Right Morning A 2018-10-16 13:48:31 48 1425 2 0 un NA 1
vissafo NA NA NA NA NA NA NA NA NA NA NA NA NA NA NA NA 1 23 32 Female Right Morning B 2019-01-08 13:42:19 48 520 1 1 un NA 1
ancerche NA NA NA NA NA NA NA NA NA NA NA NA NA NA NA NA 1 22 25 Male Right Morning A 2019-01-08 10:00:13 48 2001 -1 0 un NA 1
petiro NA NA NA NA NA NA NA NA NA NA NA NA NA NA NA NA 1 17 24 Male Right Morning B 2018-11-15 14:10:31 48 1113 2 0 un NA 1
apostomo 11008 A apostolo 1 2.715968037 8 6.85 2 1 6.84 2.55 1 8 final 1 yes 1 14 22 Female Right Morning A 2018-11-12 13:44:47 49 1159 1 0 un novelword 3
bottefa 21006 B bottega 0 3.468532444 7 6.76 1.95 1 6.89 1.95 1 7 final 1 yes 1 11 25 Male Right Morning B 2018-11-02 13:41:00 49 713 2 1 un novelword 3
mastenza 12043 A NA NA NA NA NA NA NA 6.9 2.25 2 8 NA NA no 1 8 24 Female Right Morning A 2018-10-16 13:48:31 49 1145 2 1 un novelword 2
sentesto 12046 A NA NA NA NA NA NA NA 7.01 2 2 8 NA NA no 1 20 32 Female Right Morning A 2018-12-03 13:26:00 49 585 2 1 un novelword 3
tullordi 12050 A NA NA NA NA NA NA NA 6.71 3 3 8 NA NA no 1 22 25 Male Right Morning A 2019-01-08 10:00:13 49 639 2 1 un novelword 4
adrovi NA NA NA NA NA NA NA NA NA NA NA NA NA NA NA NA 1 1 28 Male Right Morning B 2018-09-04 10:04:35 49 849 1 1 un NA 1
brazza NA NA NA NA NA NA NA NA NA NA NA NA NA NA NA NA 1 26 27 Female Right Morning A 2019-01-21 10:01:44 49 1352 2 0 un NA 1
dimanze NA NA NA NA NA NA NA NA NA NA NA NA NA NA NA NA 1 27 20 Female Right Morning B 2019-01-21 13:43:02 49 1821 2 0 un NA 1
ecoltua NA NA NA NA NA NA NA NA NA NA NA NA NA NA NA NA 1 16 24 Male Right Morning A 2018-11-15 10:03:56 49 1429 1 1 un NA 1
mastode NA NA NA NA NA NA NA NA NA NA NA NA NA NA NA NA 1 4 22 Male Right Morning A 2018-09-19 13:50:24 49 1475 2 0 un NA 1
mortora NA NA NA NA NA NA NA NA NA NA NA NA NA NA NA NA 1 23 32 Female Right Morning B 2019-01-08 13:42:19 49 580 2 0 un NA 1
omprune NA NA NA NA NA NA NA NA NA NA NA NA NA NA NA NA 1 3 25 Female Right Morning B 2018-09-19 09:54:40 49 1388 1 1 un NA 1
osboluo NA NA NA NA NA NA NA NA NA NA NA NA NA NA NA NA 1 17 24 Male Right Morning B 2018-11-15 14:10:31 49 1634 1 1 un NA 1
bimate NA NA NA NA NA NA NA NA NA NA NA NA NA NA NA NA 1 7 21 Male Right Morning B 2018-10-08 13:50:59 49 1217 1 1 un NA 1
cafugno 22036 B NA NA NA NA NA NA NA 6.56 2.75 2 7 NA NA no 1 11 25 Male Right Morning B 2018-11-02 13:41:00 50 913 2 1 un novelword 2
dofile 21012 B docile 1 2.965440196 6 6.79 1.85 1 6.67 1.95 1 6 middle 1 yes 1 27 20 Female Right Morning B 2019-01-21 13:43:02 50 1196 2 1 un novelword 3
fomirto 12038 A NA NA NA NA NA NA NA 6.73 2.45 2 7 NA NA no 1 16 24 Male Right Morning A 2018-11-15 10:03:56 50 1440 1 0 un novelword 1
fordora 11017 A forfora 0 2.502677091 7 6.83 2.25 1 6.88 1.95 1 7 middle 1 yes 1 22 25 Male Right Morning A 2019-01-08 10:00:13 50 1711 2 1 un novelword 2
frutirca 12040 A NA NA NA NA NA NA NA 6.69 2.95 2 8 NA NA no 1 8 24 Female Right Morning A 2018-10-16 13:48:31 50 1258 2 1 un novelword 3
gannolo 21007 B cannolo 1 2.689233784 7 6.91 1.95 1 6.86 1.95 1 7 initial 1 yes 1 17 24 Male Right Morning B 2018-11-15 14:10:31 50 1052 2 1 un novelword 3
gerilla 11019 A gorilla 1 3.749031532 7 6.89 1.85 1 6.98 1.8 1 7 initial 1 yes 1 4 22 Male Right Morning A 2018-09-19 13:50:24 50 600 2 1 un novelword 3
melirio 21011 B delirio 1 3.441343232 7 6.92 1.85 1 6.92 1.95 1 7 initial 1 yes 1 1 28 Male Right Morning B 2018-09-04 10:04:35 50 661 2 1 un novelword 3
tariffu 21005 B tariffa 1 3.416232512 7 6.91 2.2 1 6.9 2.7 1 7 final 1 yes 1 23 32 Female Right Morning B 2019-01-08 13:42:19 50 1207 1 0 un novelword 3
prebba NA NA NA NA NA NA NA NA NA NA NA NA NA NA NA NA 1 14 22 Female Right Morning A 2018-11-12 13:44:47 50 1571 1 1 un NA 1
segazibe NA NA NA NA NA NA NA NA NA NA NA NA NA NA NA NA 1 3 25 Female Right Morning B 2018-09-19 09:54:40 50 1923 2 0 un NA 1
sideto NA NA NA NA NA NA NA NA NA NA NA NA NA NA NA NA 1 7 21 Male Right Morning B 2018-10-08 13:50:59 50 1136 1 1 un NA 1
agiorma NA NA NA NA NA NA NA NA NA NA NA NA NA NA NA NA 1 26 27 Female Right Morning A 2019-01-21 10:01:44 50 1123 1 1 un NA 1
afubicca NA NA NA NA NA NA NA NA NA NA NA NA NA NA NA NA 1 20 32 Female Right Morning A 2018-12-03 13:26:00 50 608 1 1 un NA 1
aseddoto 11004 A aneddoto 1 3.010467166 8 6.85 2.65 1 6.75 2.8 1 8 initial 1 yes 1 22 25 Male Right Morning A 2019-01-08 10:00:13 51 674 2 1 un novelword 3
augubio 21004 B augurio 1 2.942971678 7 6.68 1.85 1 6.41 2.7 1 7 middle 1 yes 1 11 25 Male Right Morning B 2018-11-02 13:41:00 51 1090 2 1 un novelword 3
buscio 11020 A guscio 1 3.558279151 6 6.7 1.8 1 6.69 1.75 1 6 initial 1 yes 1 8 24 Female Right Morning A 2018-10-16 13:48:31 51 634 2 1 un novelword 3
enalogia 21002 B analogia 1 3.010467166 8 6.93 2.05 1 6.9 2.15 1 8 initial 1 yes 1 27 20 Female Right Morning B 2019-01-21 13:43:02 51 1119 2 1 un novelword 3
facusta 22039 B NA NA NA NA NA NA NA 6.77 1.95 1 7 NA NA no 1 7 21 Male Right Morning B 2018-10-08 13:50:59 51 1308 1 0 un novelword 2
melirio 21011 B delirio 1 3.441343232 7 6.92 1.85 1 6.92 1.95 1 7 initial 1 yes 1 23 32 Female Right Morning B 2019-01-08 13:42:19 51 820 2 1 un novelword 2
melirio 21011 B delirio 1 3.441343232 7 6.92 1.85 1 6.92 1.95 1 7 initial 1 yes 1 17 24 Male Right Morning B 2018-11-15 14:10:31 51 578 2 1 un novelword 3
pievra 21025 B piovra 1 2.764954498 6 6.75 1.85 1 6.72 1.8 1 6 middle 1 yes 1 3 25 Female Right Morning B 2018-09-19 09:54:40 51 1488 2 1 un novelword 2
scapippo 12045 A NA NA NA NA NA NA NA 6.65 2.75 2 8 NA NA no 1 4 22 Male Right Morning A 2018-09-19 13:50:24 51 822 2 1 un novelword 3
spitana 12047 A NA NA NA NA NA NA NA 6.93 1.95 1 7 NA NA no 1 20 32 Female Right Morning A 2018-12-03 13:26:00 51 683 2 1 un novelword 2
ifrebro NA NA NA NA NA NA NA NA NA NA NA NA NA NA NA NA 1 1 28 Male Right Morning B 2018-09-04 10:04:35 51 768 1 1 un NA 1
nonoste NA NA NA NA NA NA NA NA NA NA NA NA NA NA NA NA 1 16 24 Male Right Morning A 2018-11-15 10:03:56 51 1378 2 0 un NA 1
olloraro NA NA NA NA NA NA NA NA NA NA NA NA NA NA NA NA 1 26 27 Female Right Morning A 2019-01-21 10:01:44 51 744 1 1 un NA 1
vanadero NA NA NA NA NA NA NA NA NA NA NA NA NA NA NA NA 1 14 22 Female Right Morning A 2018-11-12 13:44:47 51 1537 1 1 un NA 1
corazia 11015 A corazza 1 3.112609706 7 6.85 1.9 1 6.95 1.9 1 7 final 1 yes 1 14 22 Female Right Morning A 2018-11-12 13:44:47 52 699 2 1 un novelword 3
descovo 21030 B vescovo 1 3.754404315 7 6.78 1.95 1 6.8 1.95 1 7 initial 1 yes 1 3 25 Female Right Morning B 2018-09-19 09:54:40 52 1204 2 1 un novelword 3
igiana 21019 B iguana 1 2.81931216 6 6.8 1.9 1 6.95 1.9 1 6 middle 1 yes 1 7 21 Male Right Morning B 2018-10-08 13:50:59 52 612 2 1 un novelword 2
menpola 21021 B mensola 1 3.085792887 7 6.85 1.95 1 6.74 1.9 1 7 middle 1 yes 1 1 28 Male Right Morning B 2018-09-04 10:04:35 52 721 2 1 un novelword 3
ospigio 21023 B ospizio 1 3.444987683 7 6.66 2.2 1 6.7 2.4 1 7 final 1 yes 1 23 32 Female Right Morning B 2019-01-08 13:42:19 52 729 1 0 un novelword 2
scapippo 12045 A NA NA NA NA NA NA NA 6.65 2.75 2 8 NA NA no 1 20 32 Female Right Morning A 2018-12-03 13:26:00 52 572 2 1 un novelword 2
tullordi 12050 A NA NA NA NA NA NA NA 6.71 3 3 8 NA NA no 1 4 22 Male Right Morning A 2018-09-19 13:50:24 52 1765 2 1 un novelword 2
anfungua NA NA NA NA NA NA NA NA NA NA NA NA NA NA NA NA 1 16 24 Male Right Morning A 2018-11-15 10:03:56 52 2001 -1 0 un NA 1
canude NA NA NA NA NA NA NA NA NA NA NA NA NA NA NA NA 1 22 25 Male Right Morning A 2019-01-08 10:00:13 52 1179 2 0 un NA 1
ertitamo NA NA NA NA NA NA NA NA NA NA NA NA NA NA NA NA 1 27 20 Female Right Morning B 2019-01-21 13:43:02 52 2001 -1 0 un NA 1
ieggolio NA NA NA NA NA NA NA NA NA NA NA NA NA NA NA NA 1 26 27 Female Right Morning A 2019-01-21 10:01:44 52 818 1 1 un NA 1
onimpo NA NA NA NA NA NA NA NA NA NA NA NA NA NA NA NA 1 8 24 Female Right Morning A 2018-10-16 13:48:31 52 1620 1 1 un NA 1
rebbia NA NA NA NA NA NA NA NA NA NA NA NA NA NA NA NA 1 11 25 Male Right Morning B 2018-11-02 13:41:00 52 1043 1 1 un NA 1
cluibre NA NA NA NA NA NA NA NA NA NA NA NA NA NA NA NA 1 17 24 Male Right Morning B 2018-11-15 14:10:31 52 1146 1 1 un NA 1
cortario 22037 B NA NA NA NA NA NA NA 7.03 1.85 1 8 NA NA no 1 11 25 Male Right Morning B 2018-11-02 13:41:00 53 890 2 1 un novelword 3
descovo 21030 B vescovo 1 3.754404315 7 6.78 1.95 1 6.8 1.95 1 7 initial 1 yes 1 17 24 Male Right Morning B 2018-11-15 14:10:31 53 1123 2 1 un novelword 2
edicota 21013 B edicola 1 3.000482945 7 6.89 2 1 6.9 2.3 1 7 final 1 yes 1 1 28 Male Right Morning B 2018-09-04 10:04:35 53 792 2 1 un novelword 3
gannolo 21007 B cannolo 1 2.689233784 7 6.91 1.95 1 6.86 1.95 1 7 initial 1 yes 1 23 32 Female Right Morning B 2019-01-08 13:42:19 53 853 2 1 un novelword 2
